File: data/xrd_creation/results/PG_2640-1.xy
9.903433 2561.00
9.968632 2610.00
10.0338 2509.00
10.099 2459.00
10.1642 2566.00
10.2294 2543.00
10.2946 2415.00
10.3598 2482.00
10.425 2460.00
10.4902 2344.00
10.5554 2328.00
10.6206 2325.00
10.6858 2347.00
10.751 2265.00
10.8162 2259.00
10.8814 2153.00
10.9466 2283.00
11.0118 2278.00
11.077 2219.00
11.1422 2222.00
11.2074 2229.00
11.2726 2199.00
11.3378 2225.00
11.403 2238.00
11.4682 2147.00
11.5334 2143.00
11.5986 2171.00
11.6638 2127.00
11.729 2101.00
11.7942 2074.00
11.8594 2027.00
11.9246 2116.00
11.9898 2037.00
12.055 2041.00
12.1202 1991.00
12.1854 2027.00
12.2506 1974.00
12.3158 1951.00
12.381 2007.00
12.4462 1921.00
12.5114 1976.00
12.5766 1882.00
12.6418 1994.00
12.707 1888.00
12.7722 1882.00
12.8374 1841.00
12.9026 1801.00
12.9678 1894.00
13.033 1810.00
13.0982 1876.00
13.1634 1756.00
13.2286 1883.00
13.2938 1806.00
13.359 1756.00
13.4242 1815.00
13.4894 1877.00
13.5546 1748.00
13.6198 1777.00
13.685 1803.00
13.7502 1754.00
13.8154 1773.00
13.8805 1742.00
13.9457 1751.00
14.0109 1825.00
14.0761 1887.00
14.1413 1831.00
14.2065 1953.00
14.2717 1964.00
14.3369 2303.00
14.4021 2483.00
14.4673 3145.00
14.5325 4017.00
14.5977 2799.00
14.6629 1868.00
14.7281 1849.00
14.7933 1688.00
14.8585 1732.00
14.9237 1644.00
14.9889 1691.00
15.0541 1656.00
15.1193 1728.00
15.1845 1695.00
15.2497 1647.00
15.3149 1701.00
15.3801 1727.00
15.4453 1749.00
15.5105 1549.00
15.5757 1580.00
15.6409 1696.00
15.7061 1635.00
15.7713 1552.00
15.8365 1587.00
15.9017 1584.00
15.9669 1644.00
16.0321 1559.00
16.0973 1565.00
16.1625 1606.00
16.2277 1579.00
16.2929 1505.00
16.3581 1613.00
16.4233 1536.00
16.4885 1531.00
16.5537 1600.00
16.6189 1523.00
16.6841 1534.00
16.7493 1543.00
16.8145 1540.00
16.8797 1545.00
16.9449 1532.00
17.0101 1566.00
17.0753 1533.00
17.1405 1555.00
17.2057 1519.00
17.2709 1542.00
17.3361 1516.00
17.4013 1498.00
17.4665 1461.00
17.5317 1532.00
17.5969 1502.00
17.6621 1484.00
17.7273 1458.00
17.7925 1484.00
17.8577 1505.00
17.9229 1478.00
17.9881 1484.00
18.0533 1513.00
18.1185 1450.00
18.1837 1470.00
18.2489 1531.00
18.3141 1469.00
18.3793 1488.00
18.4445 1541.00
18.5097 1455.00
18.5749 1431.00
18.6401 1457.00
18.7052 1356.00
18.7704 1442.00
18.8356 1427.00
18.9008 1414.00
18.966 1441.00
19.0312 1379.00
19.0964 1448.00
19.1616 1426.00
19.2268 1354.00
19.292 1383.00
19.3572 1410.00
19.4224 1415.00
19.4876 1338.00
19.5528 1411.00
19.618 1484.00
19.6832 1333.00
19.7484 1372.00
19.8136 1325.00
19.8788 1375.00
19.944 1351.00
20.0092 1359.00
20.0744 1440.00
20.1396 1341.00
20.2048 1431.00
20.27 1435.00
20.3352 1392.00
20.4004 1395.00
20.4656 1457.00
20.5308 1449.00
20.596 1404.00
20.6612 1382.00
20.7264 1405.00
20.7916 1338.00
20.8568 1320.00
20.922 1308.00
20.9872 1362.00
21.0524 1325.00
21.1176 1349.00
21.1828 1344.00
21.248 1328.00
21.3132 1292.00
21.3784 1340.00
21.4436 1317.00
21.5088 1383.00
21.574 1314.00
21.6392 1309.00
21.7044 1280.00
21.7696 1345.00
21.8348 1309.00
21.9 1287.00
21.9652 1252.00
22.0304 1315.00
22.0956 1306.00
22.1608 1300.00
22.226 1264.00
22.2912 1259.00
22.3564 1304.00
22.4216 1277.00
22.4868 1269.00
22.552 1297.00
22.6172 1276.00
22.6824 1369.00
22.7476 1307.00
22.8128 1427.00
22.878 1433.00
22.9432 1371.00
23.0084 1289.00
23.0736 1308.00
23.1388 1297.00
23.204 1247.00
23.2692 1256.00
23.3344 1333.00
23.3996 1421.00
23.4647 1462.00
23.5299 1425.00
23.5951 1254.00
23.6603 1262.00
23.7255 1254.00
23.7907 1210.00
23.8559 1249.00
23.9211 1243.00
23.9863 1239.00
24.0515 1346.00
24.1167 1278.00
24.1819 1281.00
24.2471 1226.00
24.3123 1334.00
24.3775 1325.00
24.4427 1392.00
24.5079 1371.00
24.5731 1490.00
24.6383 1472.00
24.7035 1523.00
24.7687 1394.00
24.8339 1299.00
24.8991 1288.00
24.9643 1273.00
25.0295 1255.00
25.0947 1182.00
25.1599 1215.00
25.2251 1248.00
25.2903 1237.00
25.3555 1145.00
25.4207 1240.00
25.4859 1238.00
25.5511 1241.00
25.6163 1287.00
25.6815 1268.00
25.7467 1309.00
25.8119 1331.00
25.8771 1386.00
25.9423 1463.00
26.0075 1532.00
26.0727 1586.00
26.1379 1727.00
26.2031 1855.00
26.2683 2111.00
26.3335 2746.00
26.3987 3863.00
26.4639 5669.00
26.5291 9230.00
26.5943 14599.00
26.6595 19523.00
26.7247 17334.00
26.7899 11073.00
26.8551 6429.00
26.9203 4285.00
26.9855 3190.00
27.0507 2559.00
27.1159 2045.00
27.1811 1864.00
27.2463 1743.00
27.3115 1756.00
27.3767 2002.00
27.4419 2654.00
27.5071 2570.00
27.5723 1883.00
27.6375 1469.00
27.7027 1459.00
27.7679 1442.00
27.8331 1332.00
27.8983 1310.00
27.9635 1348.00
28.0287 1299.00
28.0939 1310.00
28.1591 1296.00
28.2243 1315.00
28.2894 1354.00
28.3546 1290.00
28.4198 1304.00
28.485 1305.00
28.5502 1303.00
28.6154 1344.00
28.6806 1426.00
28.7458 1645.00
28.811 2194.00
28.8762 3597.00
28.9414 5805.00
29.0066 4331.00
29.0718 2366.00
29.137 1609.00
29.2022 1647.00
29.2674 1502.00
29.3326 1517.00
29.3978 1544.00
29.463 1512.00
29.5282 1446.00
29.5934 1200.00
29.6586 1310.00
29.7238 1243.00
29.789 1178.00
29.8542 1241.00
29.9194 1264.00
29.9846 1228.00
30.0498 1194.00
30.115 1247.00
30.1802 1250.00
30.2454 1316.00
30.3106 1244.00
30.3758 1272.00
30.441 1325.00
30.5062 1458.00
30.5714 1582.00
30.6366 2017.00
30.7018 1771.00
30.767 1737.00
30.8322 1911.00
30.8974 2558.00
30.9626 4282.00
31.0278 8359.00
31.093 12135.00
31.1582 7944.00
31.2234 3682.00
31.2886 2173.00
31.3538 2001.00
31.419 1690.00
31.4842 1585.00
31.5494 1574.00
31.6146 1565.00
31.6798 1585.00
31.745 1656.00
31.8102 1826.00
31.8754 1989.00
31.9406 2193.00
32.0058 2500.00
32.071 2860.00
32.1362 3496.00
32.2014 4326.00
32.2666 5428.00
32.3318 6639.00
32.397 7453.00
32.4622 7072.00
32.5274 5740.00
32.5926 4441.00
32.6578 3502.00
32.723 2824.00
32.7882 2391.00
32.8534 2070.00
32.9186 1857.00
32.9838 1921.00
33.0489 1878.00
33.1141 1967.00
33.1793 2430.00
33.2445 2715.00
33.3097 2438.00
33.3749 1959.00
33.4401 1547.00
33.5053 1474.00
33.5705 1305.00
33.6357 1350.00
33.7009 1293.00
33.7661 1342.00
33.8313 1398.00
33.8965 1460.00
33.9617 1591.00
34.0269 1741.00
34.0921 2032.00
34.1573 2603.00
34.2225 3808.00
34.2877 5390.00
34.3529 6185.00
34.4181 5347.00
34.4833 3776.00
34.5485 2514.00
34.6137 1896.00
34.6789 1597.00
34.7441 1341.00
34.8093 1261.00
34.8745 1262.00
34.9397 1231.00
35.0049 1172.00
35.0701 1147.00
35.1353 1348.00
35.2005 1552.00
35.2657 1552.00
35.3309 1397.00
35.3961 1177.00
35.4613 1098.00
35.5265 1117.00
35.5917 1098.00
35.6569 1128.00
35.7221 1078.00
35.7873 1064.00
35.8525 1158.00
35.9177 1184.00
35.9829 1129.00
36.0481 1153.00
36.1133 1150.00
36.1785 1153.00
36.2437 1203.00
36.3089 1195.00
36.3741 1285.00
36.4393 1226.00
36.5045 1178.00
36.5697 1274.00
36.6349 1207.00
36.7001 1164.00
36.7653 1113.00
36.8305 1162.00
36.8957 1188.00
36.9609 1276.00
37.0261 1438.00
37.0913 1425.00
37.1565 1298.00
37.2217 1131.00
37.2869 1191.00
37.3521 1029.00
37.4173 1097.00
37.4825 1024.00
37.5477 1034.00
37.6129 1003.00
37.6781 1007.00
37.7433 1009.00
37.8085 938.00
37.8736 1051.00
37.9388 1027.00
38.004 1022.00
38.0692 1007.00
38.1344 1039.00
38.1996 1050.00
38.2648 1083.00
38.33 1019.00
38.3952 1088.00
38.4604 1206.00
38.5256 1229.00
38.5908 1191.00
38.656 1098.00
38.7212 1035.00
38.7864 971.00
38.8516 966.00
38.9168 969.00
38.982 944.00
39.0472 969.00
39.1124 981.00
39.1776 949.00
39.2428 1005.00
39.308 1016.00
39.3732 1012.00
39.4384 1077.00
39.5036 1340.00
39.5688 1569.00
39.634 1736.00
39.6992 1649.00
39.7644 1417.00
39.8296 1290.00
39.8948 1240.00
39.96 1264.00
40.0252 1270.00
40.0904 1823.00
40.1556 2552.00
40.2208 2177.00
40.286 1819.00
40.3512 1341.00
40.4164 1101.00
40.4816 1053.00
40.5468 1047.00
40.612 1096.00
40.6772 1142.00
40.7424 1325.00
40.8076 1599.00
40.8728 1727.00
40.938 1473.00
41.0032 1338.00
41.0684 1175.00
41.1336 1118.00
41.1988 1146.00
41.264 1088.00
41.3292 1051.00
41.3944 1076.00
41.4596 1033.00
41.5248 1015.00
41.59 1016.00
41.6552 1101.00
41.7204 1026.00
41.7856 986.00
41.8508 1010.00
41.916 1012.00
41.9812 969.00
42.0464 987.00
42.1116 991.00
42.1768 979.00
42.242 1015.00
42.3072 957.00
42.3724 990.00
42.4376 968.00
42.5028 1024.00
42.568 945.00
42.6332 1003.00
42.6983 1028.00
42.7635 976.00
42.8287 954.00
42.8939 972.00
42.9591 1015.00
43.0243 1013.00
43.0895 949.00
43.1547 966.00
43.2199 966.00
43.2851 1044.00
43.3503 1025.00
43.4155 951.00
43.4807 1044.00
43.5459 1051.00
43.6111 1018.00
43.6763 1107.00
43.7415 1174.00
43.8067 1296.00
43.8719 1325.00
43.9371 1252.00
44.0023 1175.00
44.0675 1153.00
44.1327 1117.00
44.1979 1162.00
44.2631 1182.00
44.3283 1179.00
44.3935 1293.00
44.4587 1343.00
44.5239 1598.00
44.5891 1660.00
44.6543 1713.00
44.7195 1896.00
44.7847 2063.00
44.8499 2187.00
44.9151 2120.00
44.9803 1900.00
45.0455 1707.00
45.1107 1535.00
45.1759 1410.00
45.2411 1334.00
45.3063 1328.00
45.3715 1351.00
45.4367 1283.00
45.5019 1275.00
45.5671 1194.00
45.6323 1129.00
45.6975 1179.00
45.7627 1193.00
45.8279 1182.00
45.8931 1277.00
45.9583 1320.00
46.0235 1368.00
46.0887 1547.00
46.1539 1835.00
46.2191 2113.00
46.2843 2354.00
46.3495 2532.00
46.4147 2291.00
46.4799 2250.00
46.5451 2064.00
46.6103 1950.00
46.6755 1660.00
46.7407 1536.00
46.8059 1332.00
46.8711 1211.00
46.9363 1178.00
47.0015 1221.00
47.0667 1067.00
47.1319 1101.00
47.1971 1164.00
47.2623 1124.00
47.3275 1160.00
47.3927 1120.00
47.4579 1214.00
47.523 1368.00
47.5882 1649.00
47.6534 2181.00
47.7186 3820.00
47.7838 5229.00
47.849 4559.00
47.9142 3917.00
47.9794 2566.00
48.0446 1731.00
48.1098 1422.00
48.175 1320.00
48.2402 1180.00
48.3054 1183.00
48.3706 1147.00
48.4358 1202.00
48.501 1103.00
48.5662 1136.00
48.6314 1148.00
48.6966 1052.00
48.7618 1019.00
48.827 1052.00
48.8922 1037.00
48.9574 1089.00
49.0226 996.00
49.0878 1076.00
49.153 1060.00
49.2182 1092.00
49.2834 1109.00
49.3486 1170.00
49.4138 1259.00
49.479 1387.00
49.5442 1495.00
49.6094 1664.00
49.6746 1709.00
49.7398 1724.00
49.805 1937.00
49.8702 2208.00
49.9354 2544.00
50.0006 3020.00
50.0658 3274.00
50.131 3503.00
50.1962 3342.00
50.2614 2849.00
50.3266 2486.00
50.3918 2258.00
50.457 1930.00
50.5222 1661.00
50.5874 1694.00
50.6526 1483.00
50.7178 1384.00
50.783 1413.00
50.8482 1278.00
50.9134 1215.00
50.9786 1234.00
51.0438 1232.00
51.109 1317.00
51.1742 1233.00
51.2394 1271.00
51.3046 1231.00
51.3698 1217.00
51.435 1187.00
51.5002 1103.00
51.5654 1144.00
51.6306 1112.00
51.6958 1183.00
51.761 1031.00
51.8262 1150.00
51.8914 1095.00
51.9566 1182.00
52.0218 1350.00
52.087 1484.00
52.1522 1694.00
52.2174 2404.00
52.2826 4803.00
52.3477 8566.00
52.4129 5914.00
52.4781 5588.00
52.5433 3683.00
52.6085 2137.00
52.6737 1679.00
52.7389 1458.00
52.8041 1328.00
52.8693 1312.00
52.9345 1222.00
52.9997 1213.00
53.0649 1245.00
53.1301 1207.00
53.1953 1218.00
53.2605 1256.00
53.3257 1303.00
53.3909 1338.00
53.4561 1249.00
53.5213 1221.00
53.5865 1195.00
53.6517 1186.00
53.7169 1147.00
53.7821 1125.00
53.8473 1168.00
53.9125 1137.00
53.9777 1217.00
54.0429 1232.00
54.1081 1297.00
54.1733 1199.00
54.2385 1249.00
54.3037 1243.00
54.3689 1170.00
54.4341 1232.00
54.4993 1167.00
54.5645 1244.00
54.6297 1143.00
54.6949 1192.00
54.7601 1062.00
54.8253 1095.00
54.8905 1059.00
54.9557 1002.00
55.0209 1074.00
55.0861 1057.00
55.1513 1083.00
55.2165 1081.00
55.2817 1151.00
55.3469 1288.00
55.4121 1415.00
55.4773 1387.00
55.5425 1309.00
55.6077 1258.00
55.6729 1237.00
55.7381 1144.00
55.8033 1069.00
55.8685 1095.00
55.9337 1018.00
55.9989 1109.00
56.0641 1136.00
56.1293 1230.00
56.1945 1872.00
56.2597 2882.00
56.3249 2235.00
56.3901 2036.00
56.4553 1779.00
56.5205 1355.00
56.5857 1223.00
56.6509 1230.00
56.7161 1208.00
56.7813 1232.00
56.8465 1080.00
56.9117 1138.00
56.9769 1088.00
57.042 1045.00
57.1073 1055.00
57.1724 1038.00
57.2376 1086.00
57.3028 1086.00
57.368 1045.00
57.4332 1108.00
57.4984 1141.00
57.5636 1095.00
57.6288 1118.00
57.694 1236.00
57.7592 1183.00
57.8244 1235.00
57.8896 1391.00
57.9548 1374.00
58.02 1506.00
58.0852 1587.00
58.1504 1788.00
58.2156 2048.00
58.2808 2222.00
58.346 2263.00
58.4112 2191.00
58.4764 2104.00
58.5416 1877.00
58.6068 1810.00
58.672 1591.00
58.7372 1472.00
58.8024 1468.00
58.8676 1455.00
58.9328 1580.00
58.998 1518.00
59.0632 1437.00
59.1284 1300.00
59.1936 1264.00
59.2588 1225.00
59.324 1183.00
59.3892 1243.00
59.4544 1503.00
59.5196 2274.00
59.5848 2141.00
59.65 1737.00
59.7152 2008.00
59.7804 1574.00
59.8456 1275.00
59.9108 1256.00
59.976 1233.00
60.0412 1202.00
60.1064 1293.00
60.1716 1271.00
60.2368 1258.00
60.302 1319.00
60.3672 1402.00
60.4324 1456.00
60.4976 1578.00
60.5628 1593.00
60.628 1736.00
60.6932 1914.00
60.7584 2064.00
60.8236 2031.00
60.8888 1855.00
60.954 1820.00
61.0192 1646.00
61.0844 1567.00
61.1496 1398.00
61.2148 1352.00
61.28 1325.00
61.3452 1282.00
61.4104 1260.00
61.4756 1296.00
61.5408 1298.00
61.606 1281.00
61.6712 1256.00
61.7364 1166.00
61.8016 1115.00
61.8667 1095.00
61.932 952.00
61.9971 1004.00
62.0623 993.00
62.1275 964.00
62.1927 966.00
62.2579 1020.00
62.3231 992.00
62.3883 948.00
62.4535 991.00
62.5187 979.00
62.5839 1010.00
62.6491 997.00
62.7143 1063.00
62.7795 1035.00
62.8447 1088.00
62.9099 1027.00
62.9751 1114.00
63.0403 1106.00
63.1055 1179.00
63.1707 1196.00
63.2359 1314.00
63.3011 1306.00
63.3663 1317.00
63.4315 1402.00
63.4967 1432.00
63.5619 1380.00
63.6271 1438.00
63.6923 1346.00
63.7575 1321.00
63.8227 1281.00
63.8879 1232.00
63.9531 1229.00
64.0183 1209.00
64.0835 1114.00
64.1487 1151.00
64.2139 1220.00
64.2791 1441.00
64.3443 1666.00
64.4095 1464.00
64.4747 1381.00
64.5399 1371.00
64.6051 1194.00
64.6703 1103.00
64.7355 1058.00
64.8007 1013.00
64.8659 1020.00
64.9311 1057.00
64.9963 977.00
65.0615 977.00
65.1267 951.00
65.1919 1022.00
65.2571 1023.00
65.3223 975.00
65.3875 1004.00
65.4527 1001.00
65.5179 924.00
65.5831 959.00
65.6483 1072.00
65.7135 1055.00
65.7787 1118.00
65.8439 1149.00
65.9091 1349.00
65.9743 1381.00
66.0395 1591.00
66.1047 1763.00
66.1699 2131.00
66.2351 2672.00
66.3003 2950.00
66.3655 2560.00
66.4307 2378.00
66.4959 2069.00
66.561 1694.00
66.6263 1465.00
66.6915 1314.00
66.7566 1142.00
66.8218 1108.00
66.887 1058.00
66.9522 986.00
67.0174 982.00
67.0826 945.00
67.1478 975.00
67.213 953.00
67.2782 983.00
67.3434 1009.00
67.4086 997.00
67.4738 1026.00
67.539 987.00
67.6042 918.00
67.6694 997.00
67.7346 978.00
67.7998 950.00
67.865 891.00
67.9302 993.00
67.9954 907.00
68.0606 958.00
68.1258 909.00
68.191 953.00
68.2562 986.00
68.3214 1039.00
68.3866 1055.00
68.4518 1073.00
68.517 1170.00
68.5822 1147.00
68.6474 1156.00
68.7126 1105.00
68.7778 1144.00
68.843 1025.00
68.9082 1029.00
68.9734 997.00
69.0386 1067.00
69.1038 1048.00
69.169 1052.00
69.2342 996.00
69.2994 1022.00
69.3646 1043.00
69.4298 1005.00
69.495 953.00
69.5602 1000.00
69.6254 962.00
69.6906 1048.00
69.7558 1012.00
69.821 1118.00
69.8862 1252.00
69.9514 1382.00
70.0166 1503.00
70.0818 1455.00
70.147 1336.00
70.2122 1374.00
70.2774 1267.00
70.3426 1192.00
70.4078 1137.00
70.473 1084.00
70.5382 1065.00
70.6034 997.00
70.6686 981.00
70.7338 940.00
70.799 886.00
70.8642 962.00
70.9294 950.00
70.9946 941.00
71.0598 909.00
71.125 909.00
71.1902 957.00
71.2554 904.00
71.3205 1033.00
71.3858 919.00
71.451 946.00
71.5162 960.00
71.5813 1027.00
71.6465 1030.00
71.7117 992.00
71.7769 1098.00
71.8421 1084.00
71.9073 1135.00
71.9725 1242.00
72.0377 1220.00
72.1029 1306.00
72.1681 1378.00
72.2333 1435.00
72.2985 1526.00
72.3637 1417.00
72.4289 1349.00
72.4941 1223.00
72.5593 1231.00
72.6245 1255.00
72.6897 1131.00
72.7549 1149.00
72.8201 1051.00
72.8853 1014.00
72.9505 1032.00
73.0157 989.00
73.0809 1062.00
73.1461 982.00
73.2113 1012.00
73.2765 934.00
73.3417 1005.00
73.4069 969.00
73.4721 1030.00
73.5373 1063.00
73.6025 1004.00
73.6677 1098.00
73.7329 1141.00
73.7981 1150.00
73.8633 1165.00
73.9285 1227.00
73.9937 1239.00
74.0589 1314.00
74.1241 1346.00
74.1893 1303.00
74.2545 1293.00
74.3197 1053.00
74.3849 1192.00
74.4501 1005.00
74.5153 1077.00
74.5805 1042.00
74.6457 970.00
74.7109 972.00
74.7761 1014.00
74.8413 985.00
74.9065 991.00
74.9717 1028.00
75.0369 1072.00
75.1021 986.00
75.1673 992.00
75.2325 1040.00
75.2977 1122.00
75.3629 1148.00
75.4281 1230.00
75.4933 1435.00
75.5585 1448.00
75.6237 1446.00
75.6889 1425.00
75.7541 1342.00
75.8193 1345.00
75.8845 1170.00
75.9497 1055.00
76.0149 1076.00
76.0801 1003.00
76.1452 974.00
76.2104 988.00
76.2756 1055.00
76.3409 1056.00
76.406 1067.00
76.4712 1177.00
76.5364 1345.00
76.6016 1704.00
76.6668 1879.00
76.732 1554.00
76.7972 1464.00
76.8624 1502.00
76.9276 1280.00
76.9928 1162.00
77.058 1036.00
77.1232 991.00
77.1884 934.00
77.2536 965.00
77.3188 972.00
77.384 908.00
77.4492 909.00
77.5144 900.00
77.5796 935.00
77.6448 880.00
77.71 944.00
77.7752 928.00
77.8404 856.00
77.9056 882.00
77.9708 931.00
78.036 874.00
78.1012 846.00
78.1664 924.00
78.2316 902.00
78.2968 862.00
78.362 903.00
78.4272 907.00
78.4924 885.00
78.5576 881.00
78.6228 959.00
78.688 968.00
78.7532 887.00
78.8184 937.00
78.8836 952.00
78.9488 878.00
79.014 925.00
79.0792 888.00
79.1444 925.00
79.2096 905.00
79.2748 1016.00
79.34 949.00
79.4052 976.00
79.4704 981.00
79.5356 997.00
79.6008 1009.00
79.666 985.00
79.7312 990.00
79.7964 1017.00
79.8616 1030.00
79.9268 980.00
79.992 1037.00
80.0572 1031.00
80.1224 1039.00
80.1876 1021.00
80.2528 1019.00
80.318 938.00
80.3832 1026.00
80.4484 1019.00
80.5136 997.00
80.5788 1017.00
80.644 1067.00
80.7092 1104.00
80.7744 1050.00
80.8396 1025.00
80.9048 1034.00
80.9699 1039.00
81.0351 1099.00
81.1003 1059.00
81.1655 1015.00
81.2307 1007.00
81.2959 1038.00
81.3611 992.00
81.4263 978.00
81.4915 961.00
81.5567 986.00
81.6219 1003.00
81.6871 985.00
81.7523 983.00
81.8175 911.00
81.8827 949.00
81.9479 1009.00
82.0131 1012.00
82.0783 1034.00
82.1435 1018.00
82.2087 1016.00
82.2739 1016.00
82.3391 999.00
82.4043 1051.00
82.4695 1083.00
82.5347 1079.00
82.5999 1103.00
82.6651 1127.00
82.7303 1173.00
82.7955 1272.00
82.8607 1321.00
82.9259 1443.00
82.9911 1643.00
83.0563 1581.00
83.1215 1505.00
83.1867 1540.00
83.2519 1540.00
83.3171 1421.00
83.3823 1378.00
83.4475 1324.00
83.5127 1384.00
83.5779 1299.00
83.6431 1286.00
83.7083 1442.00
83.7735 1476.00
83.8387 1436.00
83.9039 1381.00
83.9691 1358.00
84.0343 1260.00
84.0995 1304.00
84.1647 1288.00
84.2299 1286.00
84.2951 1194.00
84.3603 1249.00
84.4255 1350.00
84.4907 1329.00
84.5559 1382.00
84.6211 1533.00
84.6863 1533.00
84.7515 1640.00
84.8167 1573.00
84.8819 1560.00
84.9471 1479.00
85.0123 1417.00
85.0775 1359.00
85.1427 1218.00
85.2079 1238.00
85.2731 1187.00
85.3383 1168.00
85.4035 1118.00
85.4687 1032.00
85.5339 1124.00
85.5991 999.00
85.6643 1078.00
85.7295 1067.00
85.7946 981.00
85.8598 1066.00
85.925 1036.00
85.9903 1130.00
86.0554 1148.00
86.1206 1305.00
86.1858 1532.00
86.251 1363.00
86.3162 1305.00
86.3814 1228.00
86.4466 1285.00
86.5118 1212.00
86.577 1089.00
86.6422 1037.00
86.7074 1016.00
86.7726 1002.00
86.8378 1021.00
86.903 1022.00
86.9682 963.00
87.0334 1078.00
87.0986 1091.00
87.1638 1112.00
87.229 1100.00
87.2942 1101.00
87.3594 1151.00
87.4246 1091.00
87.4898 1068.00
87.555 1086.00
87.6202 1106.00
87.6854 1084.00
87.7506 1124.00
87.8158 1137.00
87.881 1203.00
87.9462 1255.00
88.0114 1211.00
88.0766 1150.00
88.1418 1122.00
88.207 1163.00
88.2722 1120.00
88.3374 1029.00
88.4026 1000.00
88.4678 1023.00
88.533 985.00
88.5982 930.00
88.6634 956.00
88.7286 897.00
88.7938 952.00
88.859 949.00
88.9242 1044.00
88.9894 944.00
89.0546 960.00
89.1198 978.00
89.185 1086.00
89.2502 1080.00
89.3154 1043.00
89.3806 1074.00
89.4458 1144.00
89.511 1126.00
89.5762 1143.00
89.6414 1220.00
89.7066 1267.00
89.7718 1255.00
89.837 1189.00
89.9022 1221.00
89.9674 1183.00
90.0326 1175.00
90.0978 1201.00
90.163 1106.00
90.2282 1120.00
90.2934 1068.00
90.3586 1042.00
90.4238 1070.00
90.489 1061.00
90.5542 1094.00
90.6193 1109.00
90.6845 1022.00
90.7497 1011.00
90.8149 1047.00
90.8801 1065.00
90.9453 1021.00
91.0105 1029.00
91.0757 1106.00
91.1409 1064.00
91.2061 1122.00
91.2713 1144.00
91.3365 1101.00
91.4017 1193.00
91.4669 1353.00
91.5321 1262.00
91.5973 1115.00
91.6625 1156.00
91.7277 1130.00
91.7929 1153.00
91.8581 1088.00
91.9233 1065.00
91.9885 1044.00
92.0537 1029.00
92.1189 974.00
92.1841 955.00
92.2493 984.00
92.3145 1020.00
92.3797 982.00
92.4449 996.00
92.5101 1023.00
92.5753 980.00
92.6405 1003.00
92.7057 1062.00
92.7709 1038.00
92.8361 1048.00
92.9013 1022.00
92.9665 1005.00
93.0317 1031.00
93.0969 1064.00
93.1621 1113.00
93.2273 1216.00
93.2925 1110.00
93.3577 1016.00
93.4229 1069.00
93.4881 1126.00
93.5533 1056.00
93.6185 1022.00
93.6837 1004.00
93.7489 991.00
93.8141 971.00
93.8793 1066.00
93.9445 956.00
94.0097 974.00
94.0749 976.00
94.1401 949.00
94.2053 913.00
94.2705 881.00
94.3357 951.00
94.4009 927.00
94.4661 934.00
94.5313 935.00
94.5965 921.00
94.6617 907.00
94.7269 901.00
94.7921 916.00
94.8573 904.00
94.9225 882.00
94.9877 882.00
95.0529 889.00
95.1181 896.00
95.1833 910.00
95.2485 867.00
95.3137 901.00
95.3789 911.00
95.444 888.00
95.5092 881.00
95.5744 937.00
95.6396 921.00
95.7048 884.00
95.77 958.00
95.8352 959.00
95.9004 1112.00
95.9656 1095.00
96.0308 1049.00
96.096 972.00
96.1612 982.00
96.2264 1005.00
96.2916 1014.00
96.3568 980.00
96.422 931.00
96.4872 960.00
96.5524 982.00
96.6176 930.00
96.6828 1051.00
96.748 1016.00
96.8132 948.00
96.8784 947.00
96.9436 983.00
97.0088 988.00
97.074 970.00
97.1392 1006.00
97.2044 907.00
97.2696 977.00
97.3348 949.00
97.4 990.00
97.4652 1065.00
97.5304 1032.00
97.5956 1067.00
97.6608 1111.00
97.726 1123.00
97.7912 1176.00
97.8564 1161.00
97.9216 1125.00
97.9868 1102.00
98.052 1169.00
98.1172 1021.00
98.1824 1096.00
98.2476 1079.00
98.3128 996.00
98.378 1030.00
98.4432 1041.00
98.5084 1005.00
98.5736 950.00
98.6388 955.00
98.704 990.00
98.7692 974.00
98.8344 996.00
98.8996 1012.00
98.9648 1007.00
99.03 1000.00
99.0952 1021.00
99.1604 955.00
99.2256 977.00
99.2908 966.00
99.356 945.00
99.4212 961.00
99.4864 910.00
99.5516 933.00
99.6168 947.00
99.682 910.00
99.7472 893.00
99.8124 929.00
99.8776 941.00
99.9428 932.00
100.008 924.00
100.073 921.00
100.095 873.00