File: data/xrd_creation/results/PG_2634-1.xy
9.903433 3101.00
9.968632 3140.00
10.0338 3004.00
10.099 3083.00
10.1642 3084.00
10.2294 2990.00
10.2946 2845.00
10.3598 2997.00
10.425 3046.00
10.4902 2957.00
10.5554 2879.00
10.6206 2859.00
10.6858 2872.00
10.751 2900.00
10.8162 2986.00
10.8814 2912.00
10.9466 2786.00
11.0118 2830.00
11.077 2886.00
11.1422 2882.00
11.2074 2895.00
11.2726 2813.00
11.3378 2758.00
11.403 2699.00
11.4682 2722.00
11.5334 2722.00
11.5986 2779.00
11.6638 2666.00
11.729 2695.00
11.7942 2713.00
11.8594 2576.00
11.9246 2668.00
11.9898 2626.00
12.055 2714.00
12.1202 2571.00
12.1854 2635.00
12.2506 2664.00
12.3158 2575.00
12.381 2579.00
12.4462 2517.00
12.5114 2601.00
12.5766 2493.00
12.6418 2569.00
12.707 2571.00
12.7722 2549.00
12.8374 2693.00
12.9026 2629.00
12.9678 2562.00
13.033 2535.00
13.0982 2534.00
13.1634 2477.00
13.2286 2474.00
13.2938 2482.00
13.359 2440.00
13.4242 2426.00
13.4894 2433.00
13.5546 2504.00
13.6198 2504.00
13.685 2541.00
13.7502 2417.00
13.8154 2349.00
13.8805 2438.00
13.9457 2437.00
14.0109 2504.00
14.0761 2412.00
14.1413 2453.00
14.2065 2455.00
14.2717 2318.00
14.3369 2333.00
14.4021 2472.00
14.4673 2316.00
14.5325 2339.00
14.5977 2365.00
14.6629 2363.00
14.7281 2359.00
14.7933 2383.00
14.8585 2379.00
14.9237 2340.00
14.9889 2277.00
15.0541 2351.00
15.1193 2409.00
15.1845 2465.00
15.2497 2369.00
15.3149 2340.00
15.3801 2290.00
15.4453 2348.00
15.5105 2373.00
15.5757 2329.00
15.6409 2344.00
15.7061 2237.00
15.7713 2357.00
15.8365 2285.00
15.9017 2309.00
15.9669 2327.00
16.0321 2353.00
16.0973 2379.00
16.1625 2374.00
16.2277 2436.00
16.2929 2429.00
16.3581 2536.00
16.4233 2659.00
16.4885 2851.00
16.5537 3238.00
16.6189 3591.00
16.6841 3891.00
16.7493 4107.00
16.8145 4003.00
16.8797 3814.00
16.9449 3542.00
17.0101 2705.00
17.0753 2413.00
17.1405 2306.00
17.2057 2264.00
17.2709 2315.00
17.3361 2243.00
17.4013 2163.00
17.4665 2286.00
17.5317 2309.00
17.5969 2212.00
17.6621 2268.00
17.7273 2359.00
17.7925 2216.00
17.8577 2306.00
17.9229 2304.00
17.9881 2200.00
18.0533 2261.00
18.1185 2280.00
18.1837 2259.00
18.2489 2267.00
18.3141 2267.00
18.3793 2164.00
18.4445 2192.00
18.5097 2205.00
18.5749 2093.00
18.6401 2207.00
18.7052 2238.00
18.7704 2117.00
18.8356 2210.00
18.9008 2212.00
18.966 2125.00
19.0312 2205.00
19.0964 2145.00
19.1616 2143.00
19.2268 2158.00
19.292 2134.00
19.3572 2075.00
19.4224 2172.00
19.4876 2151.00
19.5528 2146.00
19.618 2162.00
19.6832 2133.00
19.7484 2051.00
19.8136 2154.00
19.8788 2086.00
19.944 2122.00
20.0092 2165.00
20.0744 2164.00
20.1396 2060.00
20.2048 2188.00
20.27 2131.00
20.3352 2066.00
20.4004 2122.00
20.4656 2119.00
20.5308 2106.00
20.596 2138.00
20.6612 2163.00
20.7264 2129.00
20.7916 2146.00
20.8568 2118.00
20.922 2097.00
20.9872 1999.00
21.0524 2084.00
21.1176 2120.00
21.1828 2108.00
21.248 2116.00
21.3132 2092.00
21.3784 2103.00
21.4436 2073.00
21.5088 2119.00
21.574 2051.00
21.6392 2069.00
21.7044 2022.00
21.7696 2048.00
21.8348 2100.00
21.9 2030.00
21.9652 2091.00
22.0304 2111.00
22.0956 2075.00
22.1608 1984.00
22.226 1982.00
22.2912 2055.00
22.3564 2111.00
22.4216 2053.00
22.4868 2045.00
22.552 1969.00
22.6172 1999.00
22.6824 2073.00
22.7476 1987.00
22.8128 2077.00
22.878 2074.00
22.9432 2068.00
23.0084 2063.00
23.0736 2097.00
23.1388 2006.00
23.204 2094.00
23.2692 2058.00
23.3344 2028.00
23.3996 2154.00
23.4647 2123.00
23.5299 2333.00
23.5951 2559.00
23.6603 2835.00
23.7255 3167.00
23.7907 3213.00
23.8559 3385.00
23.9211 3270.00
23.9863 3033.00
24.0515 2401.00
24.1167 2092.00
24.1819 2052.00
24.2471 2037.00
24.3123 1999.00
24.3775 1990.00
24.4427 2020.00
24.5079 2028.00
24.5731 1990.00
24.6383 2017.00
24.7035 2044.00
24.7687 2024.00
24.8339 2041.00
24.8991 1953.00
24.9643 1998.00
25.0295 2032.00
25.0947 1978.00
25.1599 2010.00
25.2251 1962.00
25.2903 2043.00
25.3555 2066.00
25.4207 1968.00
25.4859 2021.00
25.5511 1949.00
25.6163 1995.00
25.6815 1957.00
25.7467 1942.00
25.8119 1943.00
25.8771 2034.00
25.9423 2023.00
26.0075 2026.00
26.0727 1928.00
26.1379 1995.00
26.2031 1982.00
26.2683 2019.00
26.3335 1994.00
26.3987 2012.00
26.4639 1959.00
26.5291 1921.00
26.5943 1986.00
26.6595 2011.00
26.7247 2034.00
26.7899 1974.00
26.8551 2043.00
26.9203 1960.00
26.9855 2037.00
27.0507 1965.00
27.1159 1927.00
27.1811 2024.00
27.2463 1994.00
27.3115 1986.00
27.3767 1932.00
27.4419 1994.00
27.5071 2009.00
27.5723 2006.00
27.6375 1955.00
27.7027 2043.00
27.7679 2008.00
27.8331 1973.00
27.8983 1940.00
27.9635 1940.00
28.0287 2006.00
28.0939 1939.00
28.1591 2011.00
28.2243 1956.00
28.2894 1944.00
28.3546 1991.00
28.4198 2004.00
28.485 1996.00
28.5502 1956.00
28.6154 2020.00
28.6806 2036.00
28.7458 2099.00
28.811 2250.00
28.8762 2570.00
28.9414 3017.00
29.0066 3455.00
29.0718 4018.00
29.137 4314.00
29.2022 4409.00
29.2674 4250.00
29.3326 3383.00
29.3978 2779.00
29.463 2246.00
29.5282 2030.00
29.5934 1990.00
29.6586 1958.00
29.7238 1983.00
29.789 1978.00
29.8542 2008.00
29.9194 1926.00
29.9846 2006.00
30.0498 1957.00
30.115 1898.00
30.1802 1883.00
30.2454 1912.00
30.3106 1926.00
30.3758 1973.00
30.441 1929.00
30.5062 1905.00
30.5714 1822.00
30.6366 2006.00
30.7018 1953.00
30.767 1850.00
30.8322 1955.00
30.8974 1840.00
30.9626 1847.00
31.0278 1985.00
31.093 1881.00
31.1582 1842.00
31.2234 1921.00
31.2886 1849.00
31.3538 1955.00
31.419 1903.00
31.4842 1953.00
31.5494 1867.00
31.6146 1880.00
31.6798 1866.00
31.745 1893.00
31.8102 1933.00
31.8754 1923.00
31.9406 1808.00
32.0058 1866.00
32.071 1871.00
32.1362 1947.00
32.2014 1880.00
32.2666 1912.00
32.3318 1850.00
32.397 1884.00
32.4622 1873.00
32.5274 1888.00
32.5926 1869.00
32.6578 1864.00
32.723 1900.00
32.7882 1873.00
32.8534 1856.00
32.9186 1843.00
32.9838 1869.00
33.0489 1874.00
33.1141 1844.00
33.1793 1845.00
33.2445 1909.00
33.3097 1890.00
33.3749 1916.00
33.4401 1828.00
33.5053 1828.00
33.5705 1962.00
33.6357 1994.00
33.7009 2182.00
33.7661 2236.00
33.8313 2372.00
33.8965 2386.00
33.9617 2251.00
34.0269 2076.00
34.0921 2054.00
34.1573 1899.00
34.2225 1870.00
34.2877 1863.00
34.3529 1930.00
34.4181 1885.00
34.4833 1840.00
34.5485 1936.00
34.6137 1997.00
34.6789 1993.00
34.7441 2239.00
34.8093 2538.00
34.8745 2973.00
34.9397 3452.00
35.0049 3785.00
35.0701 3944.00
35.1353 3806.00
35.2005 3561.00
35.2657 2909.00
35.3309 2348.00
35.3961 2062.00
35.4613 1959.00
35.5265 1860.00
35.5917 1894.00
35.6569 1834.00
35.7221 1743.00
35.7873 1829.00
35.8525 1827.00
35.9177 1815.00
35.9829 1812.00
36.0481 1861.00
36.1133 1803.00
36.1785 1723.00
36.2437 1792.00
36.3089 1865.00
36.3741 1893.00
36.4393 1817.00
36.5045 1857.00
36.5697 1817.00
36.6349 1828.00
36.7001 1825.00
36.7653 1860.00
36.8305 1723.00
36.8957 1737.00
36.9609 1744.00
37.0261 1854.00
37.0913 1868.00
37.1565 1850.00
37.2217 1764.00
37.2869 1846.00
37.3521 1743.00
37.4173 1784.00
37.4825 1709.00
37.5477 1886.00
37.6129 1718.00
37.6781 1775.00
37.7433 1785.00
37.8085 1821.00
37.8736 1802.00
37.9388 1949.00
38.004 1995.00
38.0692 1989.00
38.1344 2036.00
38.1996 1842.00
38.2648 1821.00
38.33 1793.00
38.3952 1763.00
38.4604 1696.00
38.5256 1822.00
38.5908 1807.00
38.656 1715.00
38.7212 1781.00
38.7864 1733.00
38.8516 1738.00
38.9168 1765.00
38.982 1817.00
39.0472 1804.00
39.1124 1797.00
39.1776 1838.00
39.2428 1670.00
39.308 1806.00
39.3732 1755.00
39.4384 1853.00
39.5036 1795.00
39.5688 1832.00
39.634 1842.00
39.6992 1786.00
39.7644 1843.00
39.8296 1813.00
39.8948 1804.00
39.96 1818.00
40.0252 1856.00
40.0904 1959.00
40.1556 1974.00
40.2208 2000.00
40.286 2059.00
40.3512 2414.00
40.4164 2900.00
40.4816 3632.00
40.5468 4294.00
40.612 4901.00
40.6772 5338.00
40.7424 5344.00
40.8076 4972.00
40.8728 4147.00
40.938 3148.00
41.0032 2571.00
41.0684 2153.00
41.1336 2003.00
41.1988 1912.00
41.264 1865.00
41.3292 1806.00
41.3944 1861.00
41.4596 1793.00
41.5248 1860.00
41.59 1846.00
41.6552 1735.00
41.7204 1819.00
41.7856 1708.00
41.8508 1783.00
41.916 1751.00
41.9812 1743.00
42.0464 1667.00
42.1116 1751.00
42.1768 1766.00
42.242 1707.00
42.3072 1722.00
42.3724 1787.00
42.4376 1815.00
42.5028 1759.00
42.568 1814.00
42.6332 1765.00
42.6983 1780.00
42.7635 1742.00
42.8287 1790.00
42.8939 1690.00
42.9591 1789.00
43.0243 1726.00
43.0895 1761.00
43.1547 1755.00
43.2199 1802.00
43.2851 1760.00
43.3503 1772.00
43.4155 1701.00
43.4807 1771.00
43.5459 1649.00
43.6111 1763.00
43.6763 1828.00
43.7415 1673.00
43.8067 1699.00
43.8719 1797.00
43.9371 1801.00
44.0023 1768.00
44.0675 1851.00
44.1327 1769.00
44.1979 1800.00
44.2631 1684.00
44.3283 1748.00
44.3935 1809.00
44.4587 1772.00
44.5239 1781.00
44.5891 1740.00
44.6543 1754.00
44.7195 1704.00
44.7847 1754.00
44.8499 1793.00
44.9151 1930.00
44.9803 2020.00
45.0455 2219.00
45.1107 2458.00
45.1759 2701.00
45.2411 2855.00
45.3063 2768.00
45.3715 2542.00
45.4367 2329.00
45.5019 2059.00
45.5671 1917.00
45.6323 1807.00
45.6975 1782.00
45.7627 1753.00
45.8279 1724.00
45.8931 1755.00
45.9583 1780.00
46.0235 1771.00
46.0887 1767.00
46.1539 1785.00
46.2191 1740.00
46.2843 1843.00
46.3495 1651.00
46.4147 1766.00
46.4799 1729.00
46.5451 1718.00
46.6103 1778.00
46.6755 1718.00
46.7407 1670.00
46.8059 1766.00
46.8711 1768.00
46.9363 1720.00
47.0015 1675.00
47.0667 1831.00
47.1319 1722.00
47.1971 1658.00
47.2623 1792.00
47.3275 1667.00
47.3927 1732.00
47.4579 1681.00
47.523 1731.00
47.5882 1747.00
47.6534 1675.00
47.7186 1740.00
47.7838 1654.00
47.849 1761.00
47.9142 1693.00
47.9794 1670.00
48.0446 1720.00
48.1098 1753.00
48.175 1750.00
48.2402 1738.00
48.3054 1661.00
48.3706 1673.00
48.4358 1758.00
48.501 1731.00
48.5662 1722.00
48.6314 1742.00
48.6966 1713.00
48.7618 1757.00
48.827 1671.00
48.8922 1639.00
48.9574 1755.00
49.0226 1683.00
49.0878 1740.00
49.153 1655.00
49.2182 1694.00
49.2834 1709.00
49.3486 1724.00
49.4138 1667.00
49.479 1704.00
49.5442 1729.00
49.6094 1672.00
49.6746 1767.00
49.7398 1656.00
49.805 1693.00
49.8702 1733.00
49.9354 1702.00
50.0006 1777.00
50.0658 1754.00
50.131 1714.00
50.1962 1714.00
50.2614 1720.00
50.3266 1709.00
50.3918 1719.00
50.457 1798.00
50.5222 1727.00
50.5874 1701.00
50.6526 1682.00
50.7178 1673.00
50.783 1749.00
50.8482 1689.00
50.9134 1680.00
50.9786 1702.00
51.0438 1699.00
51.109 1751.00
51.1742 1713.00
51.2394 1713.00
51.3046 1788.00
51.3698 1749.00
51.435 1744.00
51.5002 1784.00
51.5654 1850.00
51.6306 1838.00
51.6958 1824.00
51.761 1751.00
51.8262 1782.00
51.8914 1706.00
51.9566 1678.00
52.0218 1738.00
52.087 1699.00
52.1522 1688.00
52.2174 1687.00
52.2826 1802.00
52.3477 1658.00
52.4129 1771.00
52.4781 1708.00
52.5433 1698.00
52.6085 1761.00
52.6737 1691.00
52.7389 1803.00
52.8041 1745.00
52.8693 1697.00
52.9345 1716.00
52.9997 1745.00
53.0649 1679.00
53.1301 1688.00
53.1953 1703.00
53.2605 1786.00
53.3257 1721.00
53.3909 1745.00
53.4561 1741.00
53.5213 1711.00
53.5865 1726.00
53.6517 1747.00
53.7169 1727.00
53.7821 1600.00
53.8473 1692.00
53.9125 1727.00
53.9777 1638.00
54.0429 1663.00
54.1081 1672.00
54.1733 1752.00
54.2385 1695.00
54.3037 1769.00
54.3689 1759.00
54.4341 1856.00
54.4993 1826.00
54.5645 1871.00
54.6297 1915.00
54.6949 1824.00
54.7601 1719.00
54.8253 1844.00
54.8905 1763.00
54.9557 1756.00
55.0209 1747.00
55.0861 1668.00
55.1513 1760.00
55.2165 1723.00
55.2817 1675.00
55.3469 1703.00
55.4121 1754.00
55.4773 1779.00
55.5425 1646.00
55.6077 1644.00
55.6729 1695.00
55.7381 1798.00
55.8033 1666.00
55.8685 1674.00
55.9337 1707.00
55.9989 1680.00
56.0641 1732.00
56.1293 1702.00
56.1945 1738.00
56.2597 1730.00
56.3249 1634.00
56.3901 1690.00
56.4553 1735.00
56.5205 1605.00
56.5857 1710.00
56.6509 1649.00
56.7161 1754.00
56.7813 1749.00
56.8465 1624.00
56.9117 1758.00
56.9769 1761.00
57.042 1644.00
57.1073 1668.00
57.1724 1755.00
57.2376 1817.00
57.3028 1769.00
57.368 1817.00
57.4332 1935.00
57.4984 1975.00
57.5636 2021.00
57.6288 2062.00
57.694 1938.00
57.7592 1917.00
57.8244 1968.00
57.8896 1731.00
57.9548 1813.00
58.02 1692.00
58.0852 1707.00
58.1504 1807.00
58.2156 1777.00
58.2808 1789.00
58.346 1871.00
58.4112 1961.00
58.4764 2168.00
58.5416 2213.00
58.6068 2686.00
58.672 2993.00
58.7372 3496.00
58.8024 3601.00
58.8676 3568.00
58.9328 3392.00
58.998 3089.00
59.0632 2749.00
59.1284 2521.00
59.1936 2146.00
59.2588 2005.00
59.324 1832.00
59.3892 1784.00
59.4544 1766.00
59.5196 1778.00
59.5848 1720.00
59.65 1745.00
59.7152 1790.00
59.7804 1787.00
59.8456 1736.00
59.9108 1675.00
59.976 1735.00
60.0412 1848.00
60.1064 1756.00
60.1716 1811.00
60.2368 1836.00
60.302 1793.00
60.3672 1786.00
60.4324 1837.00
60.4976 1782.00
60.5628 1799.00
60.628 1640.00
60.6932 1748.00
60.7584 1723.00
60.8236 1676.00
60.8888 1671.00
60.954 1704.00
61.0192 1702.00
61.0844 1720.00
61.1496 1721.00
61.2148 1698.00
61.28 1678.00
61.3452 1729.00
61.4104 1670.00
61.4756 1683.00
61.5408 1760.00
61.606 1737.00
61.6712 1637.00
61.7364 1825.00
61.8016 1742.00
61.8667 1688.00
61.932 1713.00
61.9971 1728.00
62.0623 1670.00
62.1275 1749.00
62.1927 1625.00
62.2579 1727.00
62.3231 1738.00
62.3883 1675.00
62.4535 1695.00
62.5187 1679.00
62.5839 1669.00
62.6491 1725.00
62.7143 1693.00
62.7795 1665.00
62.8447 1708.00
62.9099 1770.00
62.9751 1721.00
63.0403 1862.00
63.1055 1793.00
63.1707 1821.00
63.2359 1882.00
63.3011 1800.00
63.3663 1829.00
63.4315 1757.00
63.4967 1793.00
63.5619 1737.00
63.6271 1683.00
63.6923 1682.00
63.7575 1721.00
63.8227 1657.00
63.8879 1774.00
63.9531 1713.00
64.0183 1688.00
64.0835 1695.00
64.1487 1647.00
64.2139 1743.00
64.2791 1679.00
64.3443 1729.00
64.4095 1648.00
64.4747 1716.00
64.5399 1703.00
64.6051 1715.00
64.6703 1740.00
64.7355 1685.00
64.8007 1682.00
64.8659 1702.00
64.9311 1668.00
64.9963 1607.00
65.0615 1688.00
65.1267 1722.00
65.1919 1687.00
65.2571 1729.00
65.3223 1622.00
65.3875 1721.00
65.4527 1661.00
65.5179 1683.00
65.5831 1758.00
65.6483 1702.00
65.7135 1686.00
65.7787 1637.00
65.8439 1671.00
65.9091 1694.00
65.9743 1638.00
66.0395 1702.00
66.1047 1650.00
66.1699 1756.00
66.2351 1571.00
66.3003 1650.00
66.3655 1757.00
66.4307 1695.00
66.4959 1771.00
66.561 1723.00
66.6263 1722.00
66.6915 1685.00
66.7566 1612.00
66.8218 1751.00
66.887 1639.00
66.9522 1644.00
67.0174 1716.00
67.0826 1684.00
67.1478 1753.00
67.213 1598.00
67.2782 1692.00
67.3434 1679.00
67.4086 1657.00
67.4738 1705.00
67.539 1709.00
67.6042 1678.00
67.6694 1624.00
67.7346 1640.00
67.7998 1639.00
67.865 1669.00
67.9302 1762.00
67.9954 1748.00
68.0606 1630.00
68.1258 1709.00
68.191 1741.00
68.2562 1747.00
68.3214 1750.00
68.3866 1879.00
68.4518 1842.00
68.517 1815.00
68.5822 1799.00
68.6474 1833.00
68.7126 1667.00
68.7778 1705.00
68.843 1762.00
68.9082 1667.00
68.9734 1687.00
69.0386 1772.00
69.1038 1720.00
69.169 1650.00
69.2342 1674.00
69.2994 1697.00
69.3646 1731.00
69.4298 1741.00
69.495 1681.00
69.5602 1620.00
69.6254 1683.00
69.6906 1765.00
69.7558 1735.00
69.821 1808.00
69.8862 1818.00
69.9514 1864.00
70.0166 2058.00
70.0818 2128.00
70.147 2263.00
70.2122 2308.00
70.2774 2350.00
70.3426 2363.00
70.4078 2198.00
70.473 2181.00
70.5382 2042.00
70.6034 2023.00
70.6686 1884.00
70.7338 1884.00
70.799 1854.00
70.8642 1932.00
70.9294 1844.00
70.9946 1893.00
71.0598 1839.00
71.125 1890.00
71.1902 1756.00
71.2554 1722.00
71.3205 1685.00
71.3858 1738.00
71.451 1704.00
71.5162 1665.00
71.5813 1528.00
71.6465 1658.00
71.7117 1669.00
71.7769 1726.00
71.8421 1688.00
71.9073 1742.00
71.9725 1617.00
72.0377 1683.00
72.1029 1633.00
72.1681 1623.00
72.2333 1618.00
72.2985 1640.00
72.3637 1682.00
72.4289 1652.00
72.4941 1602.00
72.5593 1669.00
72.6245 1669.00
72.6897 1678.00
72.7549 1669.00
72.8201 1755.00
72.8853 1643.00
72.9505 1703.00
73.0157 1670.00
73.0809 1670.00
73.1461 1687.00
73.2113 1685.00
73.2765 1818.00
73.3417 1813.00
73.4069 1752.00
73.4721 1835.00
73.5373 1836.00
73.6025 1833.00
73.6677 1858.00
73.7329 1950.00
73.7981 2162.00
73.8633 2224.00
73.9285 2199.00
73.9937 2119.00
74.0589 2074.00
74.1241 1984.00
74.1893 1910.00
74.2545 1831.00
74.3197 1808.00
74.3849 1773.00
74.4501 1689.00
74.5153 1694.00
74.5805 1640.00
74.6457 1781.00
74.7109 1647.00
74.7761 1644.00
74.8413 1645.00
74.9065 1685.00
74.9717 1663.00
75.0369 1645.00
75.1021 1629.00
75.1673 1631.00
75.2325 1665.00
75.2977 1666.00
75.3629 1639.00
75.4281 1703.00
75.4933 1640.00
75.5585 1711.00
75.6237 1712.00
75.6889 1658.00
75.7541 1702.00
75.8193 1728.00
75.8845 1771.00
75.9497 1698.00
76.0149 1775.00
76.0801 1721.00
76.1452 1788.00
76.2104 1721.00
76.2756 1712.00
76.3409 1724.00
76.406 1656.00
76.4712 1689.00
76.5364 1752.00
76.6016 1655.00
76.6668 1716.00
76.732 1676.00
76.7972 1625.00
76.8624 1642.00
76.9276 1668.00
76.9928 1614.00
77.058 1703.00
77.1232 1743.00
77.1884 1649.00
77.2536 1668.00
77.3188 1642.00
77.384 1587.00
77.4492 1617.00
77.5144 1640.00
77.5796 1731.00
77.6448 1630.00
77.71 1664.00
77.7752 1670.00
77.8404 1648.00
77.9056 1682.00
77.9708 1709.00
78.036 1661.00
78.1012 1708.00
78.1664 1689.00
78.2316 1765.00
78.2968 1670.00
78.362 1775.00
78.4272 1719.00
78.4924 1775.00
78.5576 1768.00
78.6228 1742.00
78.688 1780.00
78.7532 1677.00
78.8184 1744.00
78.8836 1751.00
78.9488 1674.00
79.014 1667.00
79.0792 1676.00
79.1444 1673.00
79.2096 1673.00
79.2748 1629.00
79.34 1572.00
79.4052 1715.00
79.4704 1637.00
79.5356 1646.00
79.6008 1596.00
79.666 1566.00
79.7312 1654.00
79.7964 1683.00
79.8616 1636.00
79.9268 1707.00
79.992 1728.00
80.0572 1632.00
80.1224 1678.00
80.1876 1673.00
80.2528 1710.00
80.318 1686.00
80.3832 1666.00
80.4484 1578.00
80.5136 1693.00
80.5788 1684.00
80.644 1694.00
80.7092 1630.00
80.7744 1728.00
80.8396 1665.00
80.9048 1735.00
80.9699 1708.00
81.0351 1722.00
81.1003 1650.00
81.1655 1733.00
81.2307 1641.00
81.2959 1713.00
81.3611 1696.00
81.4263 1620.00
81.4915 1657.00
81.5567 1592.00
81.6219 1614.00
81.6871 1626.00
81.7523 1672.00
81.8175 1679.00
81.8827 1645.00
81.9479 1706.00
82.0131 1677.00
82.0783 1656.00
82.1435 1649.00
82.2087 1704.00
82.2739 1635.00
82.3391 1673.00
82.4043 1665.00
82.4695 1779.00
82.5347 1695.00
82.5999 1645.00
82.6651 1668.00
82.7303 1637.00
82.7955 1705.00
82.8607 1697.00
82.9259 1640.00
82.9911 1622.00
83.0563 1582.00
83.1215 1666.00
83.1867 1750.00
83.2519 1780.00
83.3171 1658.00
83.3823 1728.00
83.4475 1621.00
83.5127 1678.00
83.5779 1605.00
83.6431 1745.00
83.7083 1695.00
83.7735 1611.00
83.8387 1701.00
83.9039 1646.00
83.9691 1674.00
84.0343 1710.00
84.0995 1689.00
84.1647 1658.00
84.2299 1697.00
84.2951 1606.00
84.3603 1699.00
84.4255 1682.00
84.4907 1625.00
84.5559 1624.00
84.6211 1656.00
84.6863 1638.00
84.7515 1612.00
84.8167 1611.00
84.8819 1685.00
84.9471 1635.00
85.0123 1661.00
85.0775 1672.00
85.1427 1634.00
85.2079 1727.00
85.2731 1559.00
85.3383 1692.00
85.4035 1615.00
85.4687 1686.00
85.5339 1672.00
85.5991 1701.00
85.6643 1643.00
85.7295 1642.00
85.7946 1609.00
85.8598 1681.00
85.925 1679.00
85.9903 1679.00
86.0554 1719.00
86.1206 1687.00
86.1858 1594.00
86.251 1701.00
86.3162 1595.00
86.3814 1649.00
86.4466 1672.00
86.5118 1616.00
86.577 1620.00
86.6422 1679.00
86.7074 1673.00
86.7726 1745.00
86.8378 1692.00
86.903 1630.00
86.9682 1631.00
87.0334 1637.00
87.0986 1625.00
87.1638 1701.00
87.229 1704.00
87.2942 1716.00
87.3594 1661.00
87.4246 1744.00
87.4898 1753.00
87.555 1655.00
87.6202 1759.00
87.6854 1762.00
87.7506 1852.00
87.8158 1859.00
87.881 1868.00
87.9462 1935.00
88.0114 1848.00
88.0766 1870.00
88.1418 1861.00
88.207 1800.00
88.2722 1812.00
88.3374 1746.00
88.4026 1791.00
88.4678 1690.00
88.533 1732.00
88.5982 1778.00
88.6634 1735.00
88.7286 1682.00
88.7938 1711.00
88.859 1668.00
88.9242 1724.00
88.9894 1686.00
89.0546 1668.00
89.1198 1645.00
89.185 1632.00
89.2502 1667.00
89.3154 1666.00
89.3806 1684.00
89.4458 1630.00
89.511 1769.00
89.5762 1649.00
89.6414 1623.00
89.7066 1690.00
89.7718 1638.00
89.837 1643.00
89.9022 1632.00
89.9674 1690.00
90.0326 1631.00
90.0978 1575.00
90.163 1687.00
90.2282 1622.00
90.2934 1602.00
90.3586 1646.00
90.4238 1709.00
90.489 1617.00
90.5542 1629.00
90.6193 1706.00
90.6845 1675.00
90.7497 1678.00
90.8149 1689.00
90.8801 1724.00
90.9453 1667.00
91.0105 1621.00
91.0757 1678.00
91.1409 1624.00
91.2061 1670.00
91.2713 1636.00
91.3365 1679.00
91.4017 1624.00
91.4669 1680.00
91.5321 1618.00
91.5973 1677.00
91.6625 1717.00
91.7277 1694.00
91.7929 1659.00
91.8581 1715.00
91.9233 1658.00
91.9885 1701.00
92.0537 1582.00
92.1189 1694.00
92.1841 1593.00
92.2493 1645.00
92.3145 1596.00
92.3797 1574.00
92.4449 1649.00
92.5101 1645.00
92.5753 1608.00
92.6405 1698.00
92.7057 1725.00
92.7709 1609.00
92.8361 1629.00
92.9013 1572.00
92.9665 1713.00
93.0317 1703.00
93.0969 1702.00
93.1621 1683.00
93.2273 1665.00
93.2925 1589.00
93.3577 1642.00
93.4229 1656.00
93.4881 1630.00
93.5533 1630.00
93.6185 1681.00
93.6837 1684.00
93.7489 1660.00
93.8141 1696.00
93.8793 1704.00
93.9445 1639.00
94.0097 1673.00
94.0749 1711.00
94.1401 1677.00
94.2053 1674.00
94.2705 1639.00
94.3357 1619.00
94.4009 1665.00
94.4661 1658.00
94.5313 1619.00
94.5965 1683.00
94.6617 1670.00
94.7269 1630.00
94.7921 1619.00
94.8573 1654.00
94.9225 1636.00
94.9877 1594.00
95.0529 1598.00
95.1181 1657.00
95.1833 1710.00
95.2485 1753.00
95.3137 1702.00
95.3789 1768.00
95.444 1732.00
95.5092 1616.00
95.5744 1602.00
95.6396 1749.00
95.7048 1702.00
95.77 1752.00
95.8352 1753.00
95.9004 1666.00
95.9656 1751.00
96.0308 1649.00
96.096 1672.00
96.1612 1666.00
96.2264 1653.00
96.2916 1613.00
96.3568 1666.00
96.422 1614.00
96.4872 1716.00
96.5524 1673.00
96.6176 1602.00
96.6828 1659.00
96.748 1678.00
96.8132 1658.00
96.8784 1687.00
96.9436 1719.00
97.0088 1630.00
97.074 1752.00
97.1392 1599.00
97.2044 1708.00
97.2696 1721.00
97.3348 1687.00
97.4 1741.00
97.4652 1725.00
97.5304 1721.00
97.5956 1735.00
97.6608 1683.00
97.726 1735.00
97.7912 1811.00
97.8564 1735.00
97.9216 1792.00
97.9868 1883.00
98.052 1857.00
98.1172 1822.00
98.1824 1954.00
98.2476 1856.00
98.3128 1851.00
98.378 1885.00
98.4432 1843.00
98.5084 1835.00
98.5736 1749.00
98.6388 1779.00
98.704 1699.00
98.7692 1714.00
98.8344 1725.00
98.8996 1654.00
98.9648 1697.00
99.03 1677.00
99.0952 1647.00
99.1604 1696.00
99.2256 1720.00
99.2908 1640.00
99.356 1741.00
99.4212 1647.00
99.4864 1727.00
99.5516 1687.00
99.6168 1779.00
99.682 1610.00
99.7472 1668.00
99.8124 1680.00
99.8776 1678.00
99.9428 1706.00
100.008 1645.00
100.073 1622.00
100.095 1706.00