File: data/xrd_creation/results/PG_2243-1.xy
9.903433 2874.00
9.968632 2849.00
10.0338 2791.00
10.099 2872.00
10.1642 2821.00
10.2294 2674.00
10.2946 2668.00
10.3598 2722.00
10.425 2579.00
10.4902 2737.00
10.5554 2688.00
10.6206 2602.00
10.6858 2626.00
10.751 2528.00
10.8162 2562.00
10.8814 2520.00
10.9466 2550.00
11.0118 2474.00
11.077 2475.00
11.1422 2543.00
11.2074 2403.00
11.2726 2394.00
11.3378 2370.00
11.403 2316.00
11.4682 2350.00
11.5334 2335.00
11.5986 2261.00
11.6638 2291.00
11.729 2241.00
11.7942 2206.00
11.8594 2185.00
11.9246 2224.00
11.9898 2278.00
12.055 2168.00
12.1202 2251.00
12.1854 2169.00
12.2506 2125.00
12.3158 2058.00
12.381 2092.00
12.4462 2023.00
12.5114 2082.00
12.5766 2018.00
12.6418 1978.00
12.707 2000.00
12.7722 2014.00
12.8374 2021.00
12.9026 2077.00
12.9678 2023.00
13.033 1926.00
13.0982 1917.00
13.1634 1861.00
13.2286 1872.00
13.2938 1893.00
13.359 1818.00
13.4242 1848.00
13.4894 1795.00
13.5546 1812.00
13.6198 1790.00
13.685 1836.00
13.7502 1871.00
13.8154 1821.00
13.8805 1735.00
13.9457 1739.00
14.0109 1752.00
14.0761 1709.00
14.1413 1704.00
14.2065 1749.00
14.2717 1752.00
14.3369 1829.00
14.4021 1698.00
14.4673 1697.00
14.5325 1721.00
14.5977 1798.00
14.6629 1642.00
14.7281 1757.00
14.7933 1676.00
14.8585 1682.00
14.9237 1718.00
14.9889 1608.00
15.0541 1735.00
15.1193 1688.00
15.1845 1684.00
15.2497 1610.00
15.3149 1628.00
15.3801 1709.00
15.4453 1713.00
15.5105 1649.00
15.5757 1685.00
15.6409 1618.00
15.7061 1713.00
15.7713 1644.00
15.8365 1688.00
15.9017 1700.00
15.9669 1642.00
16.0321 1647.00
16.0973 1608.00
16.1625 1644.00
16.2277 1595.00
16.2929 1656.00
16.3581 1589.00
16.4233 1620.00
16.4885 1696.00
16.5537 1698.00
16.6189 1715.00
16.6841 1650.00
16.7493 1575.00
16.8145 1592.00
16.8797 1652.00
16.9449 1705.00
17.0101 1631.00
17.0753 1657.00
17.1405 1629.00
17.2057 1615.00
17.2709 1592.00
17.3361 1688.00
17.4013 1565.00
17.4665 1636.00
17.5317 1616.00
17.5969 1689.00
17.6621 1611.00
17.7273 1635.00
17.7925 1635.00
17.8577 1624.00
17.9229 1570.00
17.9881 1680.00
18.0533 1613.00
18.1185 1579.00
18.1837 1685.00
18.2489 1543.00
18.3141 1626.00
18.3793 1665.00
18.4445 1686.00
18.5097 1643.00
18.5749 1656.00
18.6401 1646.00
18.7052 1575.00
18.7704 1681.00
18.8356 1647.00
18.9008 1638.00
18.966 1638.00
19.0312 1708.00
19.0964 1676.00
19.1616 1649.00
19.2268 1654.00
19.292 1683.00
19.3572 1618.00
19.4224 1708.00
19.4876 1752.00
19.5528 1689.00
19.618 1672.00
19.6832 1701.00
19.7484 1624.00
19.8136 1656.00
19.8788 1723.00
19.944 1715.00
20.0092 1644.00
20.0744 1667.00
20.1396 1692.00
20.2048 1699.00
20.27 1635.00
20.3352 1690.00
20.4004 1772.00
20.4656 1727.00
20.5308 1743.00
20.596 1772.00
20.6612 1783.00
20.7264 1790.00
20.7916 1712.00
20.8568 1696.00
20.922 1774.00
20.9872 1839.00
21.0524 1994.00
21.1176 2228.00
21.1828 2654.00
21.248 3294.00
21.3132 3559.00
21.3784 2995.00
21.4436 2366.00
21.5088 1985.00
21.574 1866.00
21.6392 1779.00
21.7044 1797.00
21.7696 1786.00
21.8348 1675.00
21.9 1791.00
21.9652 1787.00
22.0304 1746.00
22.0956 1639.00
22.1608 1726.00
22.226 1733.00
22.2912 1805.00
22.3564 1777.00
22.4216 1802.00
22.4868 1727.00
22.552 1690.00
22.6172 1803.00
22.6824 1754.00
22.7476 1749.00
22.8128 1718.00
22.878 1811.00
22.9432 1734.00
23.0084 1692.00
23.0736 1723.00
23.1388 1747.00
23.204 1755.00
23.2692 1787.00
23.3344 1980.00
23.3996 1998.00
23.4647 1936.00
23.5299 1744.00
23.5951 1746.00
23.6603 1731.00
23.7255 1645.00
23.7907 1604.00
23.8559 1642.00
23.9211 1639.00
23.9863 1548.00
24.0515 1660.00
24.1167 1602.00
24.1819 1627.00
24.2471 1632.00
24.3123 1528.00
24.3775 1545.00
24.4427 1549.00
24.5079 1536.00
24.5731 1643.00
24.6383 1499.00
24.7035 1554.00
24.7687 1535.00
24.8339 1507.00
24.8991 1568.00
24.9643 1480.00
25.0295 1456.00
25.0947 1471.00
25.1599 1488.00
25.2251 1436.00
25.2903 1428.00
25.3555 1473.00
25.4207 1430.00
25.4859 1422.00
25.5511 1409.00
25.6163 1368.00
25.6815 1434.00
25.7467 1429.00
25.8119 1275.00
25.8771 1470.00
25.9423 1417.00
26.0075 1456.00
26.0727 1386.00
26.1379 1451.00
26.2031 1318.00
26.2683 1336.00
26.3335 1359.00
26.3987 1300.00
26.4639 1364.00
26.5291 1385.00
26.5943 1269.00
26.6595 1304.00
26.7247 1321.00
26.7899 1265.00
26.8551 1273.00
26.9203 1261.00
26.9855 1302.00
27.0507 1269.00
27.1159 1243.00
27.1811 1321.00
27.2463 1269.00
27.3115 1295.00
27.3767 1247.00
27.4419 1326.00
27.5071 1188.00
27.5723 1235.00
27.6375 1326.00
27.7027 1252.00
27.7679 1280.00
27.8331 1154.00
27.8983 1216.00
27.9635 1144.00
28.0287 1234.00
28.0939 1173.00
28.1591 1154.00
28.2243 1229.00
28.2894 1247.00
28.3546 1276.00
28.4198 1143.00
28.485 1205.00
28.5502 1147.00
28.6154 1185.00
28.6806 1174.00
28.7458 1200.00
28.811 1151.00
28.8762 1142.00
28.9414 1115.00
29.0066 1178.00
29.0718 1091.00
29.137 1186.00
29.2022 1078.00
29.2674 1226.00
29.3326 1409.00
29.3978 1527.00
29.463 1559.00
29.5282 1424.00
29.5934 1234.00
29.6586 1091.00
29.7238 1044.00
29.789 1068.00
29.8542 1122.00
29.9194 1080.00
29.9846 1129.00
30.0498 1017.00
30.115 1055.00
30.1802 1060.00
30.2454 1080.00
30.3106 1135.00
30.3758 1342.00
30.441 1720.00
30.5062 2370.00
30.5714 2677.00
30.6366 2421.00
30.7018 1800.00
30.767 1353.00
30.8322 1116.00
30.8974 1027.00
30.9626 998.00
31.0278 997.00
31.093 1001.00
31.1582 973.00
31.2234 947.00
31.2886 1012.00
31.3538 951.00
31.419 1077.00
31.4842 1117.00
31.5494 1274.00
31.6146 1711.00
31.6798 2484.00
31.745 3000.00
31.8102 2721.00
31.8754 2056.00
31.9406 1580.00
32.0058 1138.00
32.071 1012.00
32.1362 1024.00
32.2014 919.00
32.2666 890.00
32.3318 898.00
32.397 826.00
32.4622 890.00
32.5274 913.00
32.5926 843.00
32.6578 876.00
32.723 842.00
32.7882 907.00
32.8534 892.00
32.9186 819.00
32.9838 879.00
33.0489 884.00
33.1141 832.00
33.1793 859.00
33.2445 814.00
33.3097 861.00
33.3749 867.00
33.4401 856.00
33.5053 803.00
33.5705 827.00
33.6357 758.00
33.7009 836.00
33.7661 818.00
33.8313 878.00
33.8965 964.00
33.9617 1077.00
34.0269 1310.00
34.0921 1381.00
34.1573 1268.00
34.2225 978.00
34.2877 894.00
34.3529 808.00
34.4181 776.00
34.4833 869.00
34.5485 781.00
34.6137 736.00
34.6789 820.00
34.7441 723.00
34.8093 732.00
34.8745 777.00
34.9397 753.00
35.0049 786.00
35.0701 771.00
35.1353 719.00
35.2005 746.00
35.2657 752.00
35.3309 770.00
35.3961 708.00
35.4613 785.00
35.5265 704.00
35.5917 764.00
35.6569 730.00
35.7221 649.00
35.7873 750.00
35.8525 753.00
35.9177 846.00
35.9829 1039.00
36.0481 1081.00
36.1133 992.00
36.1785 889.00
36.2437 785.00
36.3089 732.00
36.3741 684.00
36.4393 676.00
36.5045 638.00
36.5697 696.00
36.6349 710.00
36.7001 737.00
36.7653 879.00
36.8305 1110.00
36.8957 1461.00
36.9609 1559.00
37.0261 1233.00
37.0913 972.00
37.1565 768.00
37.2217 692.00
37.2869 718.00
37.3521 637.00
37.4173 658.00
37.4825 659.00
37.5477 643.00
37.6129 597.00
37.6781 617.00
37.7433 597.00
37.8085 647.00
37.8736 665.00
37.9388 665.00
38.004 626.00
38.0692 592.00
38.1344 562.00
38.1996 640.00
38.2648 623.00
38.33 661.00
38.3952 632.00
38.4604 612.00
38.5256 636.00
38.5908 606.00
38.656 605.00
38.7212 617.00
38.7864 626.00
38.8516 585.00
38.9168 581.00
38.982 565.00
39.0472 600.00
39.1124 601.00
39.1776 614.00
39.2428 580.00
39.308 608.00
39.3732 651.00
39.4384 739.00
39.5036 925.00
39.5688 896.00
39.634 872.00
39.6992 785.00
39.7644 713.00
39.8296 729.00
39.8948 832.00
39.96 801.00
40.0252 734.00
40.0904 655.00
40.1556 632.00
40.2208 621.00
40.286 556.00
40.3512 570.00
40.4164 548.00
40.4816 549.00
40.5468 582.00
40.612 591.00
40.6772 577.00
40.7424 566.00
40.8076 563.00
40.8728 585.00
40.938 569.00
41.0032 531.00
41.0684 504.00
41.1336 555.00
41.1988 543.00
41.264 569.00
41.3292 525.00
41.3944 620.00
41.4596 559.00
41.5248 537.00
41.59 579.00
41.6552 538.00
41.7204 557.00
41.7856 553.00
41.8508 513.00
41.916 568.00
41.9812 545.00
42.0464 526.00
42.1116 564.00
42.1768 489.00
42.242 530.00
42.3072 558.00
42.3724 503.00
42.4376 555.00
42.5028 535.00
42.568 538.00
42.6332 617.00
42.6983 603.00
42.7635 620.00
42.8287 607.00
42.8939 534.00
42.9591 542.00
43.0243 562.00
43.0895 595.00
43.1547 539.00
43.2199 593.00
43.2851 566.00
43.3503 548.00
43.4155 671.00
43.4807 693.00
43.5459 620.00
43.6111 552.00
43.6763 553.00
43.7415 548.00
43.8067 568.00
43.8719 510.00
43.9371 551.00
44.0023 526.00
44.0675 557.00
44.1327 499.00
44.1979 530.00
44.2631 530.00
44.3283 525.00
44.3935 513.00
44.4587 494.00
44.5239 469.00
44.5891 512.00
44.6543 471.00
44.7195 511.00
44.7847 529.00
44.8499 511.00
44.9151 517.00
44.9803 538.00
45.0455 510.00
45.1107 541.00
45.1759 526.00
45.2411 507.00
45.3063 461.00
45.3715 519.00
45.4367 488.00
45.5019 502.00
45.5671 474.00
45.6323 502.00
45.6975 500.00
45.7627 525.00
45.8279 478.00
45.8931 527.00
45.9583 501.00
46.0235 513.00
46.0887 529.00
46.1539 550.00
46.2191 488.00
46.2843 507.00
46.3495 490.00
46.4147 470.00
46.4799 480.00
46.5451 494.00
46.6103 472.00
46.6755 489.00
46.7407 483.00
46.8059 475.00
46.8711 478.00
46.9363 462.00
47.0015 484.00
47.0667 467.00
47.1319 508.00
47.1971 533.00
47.2623 456.00
47.3275 507.00
47.3927 453.00
47.4579 522.00
47.523 483.00
47.5882 475.00
47.6534 495.00
47.7186 517.00
47.7838 484.00
47.849 483.00
47.9142 523.00
47.9794 461.00
48.0446 503.00
48.1098 501.00
48.175 494.00
48.2402 453.00
48.3054 449.00
48.3706 495.00
48.4358 508.00
48.501 497.00
48.5662 531.00
48.6314 704.00
48.6966 749.00
48.7618 701.00
48.827 686.00
48.8922 642.00
48.9574 531.00
49.0226 495.00
49.0878 487.00
49.153 470.00
49.2182 429.00
49.2834 457.00
49.3486 479.00
49.4138 439.00
49.479 462.00
49.5442 461.00
49.6094 449.00
49.6746 461.00
49.7398 474.00
49.805 440.00
49.8702 445.00
49.9354 461.00
50.0006 471.00
50.0658 458.00
50.131 496.00
50.1962 463.00
50.2614 491.00
50.3266 500.00
50.3918 483.00
50.457 458.00
50.5222 487.00
50.5874 503.00
50.6526 468.00
50.7178 443.00
50.783 454.00
50.8482 439.00
50.9134 420.00
50.9786 426.00
51.0438 493.00
51.109 383.00
51.1742 422.00
51.2394 429.00
51.3046 457.00
51.3698 442.00
51.435 399.00
51.5002 403.00
51.5654 469.00
51.6306 449.00
51.6958 435.00
51.761 433.00
51.8262 445.00
51.8914 421.00
51.9566 434.00
52.0218 474.00
52.087 440.00
52.1522 431.00
52.2174 441.00
52.2826 454.00
52.3477 450.00
52.4129 407.00
52.4781 481.00
52.5433 433.00
52.6085 422.00
52.6737 428.00
52.7389 452.00
52.8041 415.00
52.8693 408.00
52.9345 417.00
52.9997 425.00
53.0649 461.00
53.1301 443.00
53.1953 410.00
53.2605 432.00
53.3257 421.00
53.3909 437.00
53.4561 414.00
53.5213 447.00
53.5865 424.00
53.6517 413.00
53.7169 391.00
53.7821 439.00
53.8473 442.00
53.9125 419.00
53.9777 424.00
54.0429 475.00
54.1081 436.00
54.1733 410.00
54.2385 427.00
54.3037 427.00
54.3689 414.00
54.4341 408.00
54.4993 376.00
54.5645 421.00
54.6297 431.00
54.6949 405.00
54.7601 418.00
54.8253 417.00
54.8905 404.00
54.9557 425.00
55.0209 415.00
55.0861 416.00
55.1513 403.00
55.2165 420.00
55.2817 429.00
55.3469 393.00
55.4121 426.00
55.4773 383.00
55.5425 445.00
55.6077 409.00
55.6729 438.00
55.7381 430.00
55.8033 426.00
55.8685 459.00
55.9337 390.00
55.9989 375.00
56.0641 411.00
56.1293 386.00
56.1945 384.00
56.2597 428.00
56.3249 388.00
56.3901 395.00
56.4553 419.00
56.5205 382.00
56.5857 388.00
56.6509 382.00
56.7161 500.00
56.7813 469.00
56.8465 429.00
56.9117 444.00
56.9769 414.00
57.042 402.00
57.1073 426.00
57.1724 453.00
57.2376 403.00
57.3028 391.00
57.368 383.00
57.4332 382.00
57.4984 395.00
57.5636 436.00
57.6288 460.00
57.694 480.00
57.7592 499.00
57.8244 505.00
57.8896 426.00
57.9548 464.00
58.02 422.00
58.0852 425.00
58.1504 420.00
58.2156 423.00
58.2808 485.00
58.346 447.00
58.4112 433.00
58.4764 465.00
58.5416 481.00
58.6068 455.00
58.672 432.00
58.7372 452.00
58.8024 439.00
58.8676 462.00
58.9328 498.00
58.998 518.00
59.0632 438.00
59.1284 439.00
59.1936 437.00
59.2588 413.00
59.324 377.00
59.3892 389.00
59.4544 405.00
59.5196 427.00
59.5848 437.00
59.65 489.00
59.7152 543.00
59.7804 530.00
59.8456 473.00
59.9108 454.00
59.976 435.00
60.0412 404.00
60.1064 367.00
60.1716 393.00
60.2368 409.00
60.302 410.00
60.3672 398.00
60.4324 406.00
60.4976 408.00
60.5628 408.00
60.628 372.00
60.6932 375.00
60.7584 384.00
60.8236 377.00
60.8888 380.00
60.954 377.00
61.0192 424.00
61.0844 451.00
61.1496 393.00
61.2148 458.00
61.28 416.00
61.3452 403.00
61.4104 475.00
61.4756 418.00
61.5408 394.00
61.606 422.00
61.6712 377.00
61.7364 406.00
61.8016 360.00
61.8667 394.00
61.932 354.00
61.9971 358.00
62.0623 388.00
62.1275 370.00
62.1927 370.00
62.2579 385.00
62.3231 338.00
62.3883 353.00
62.4535 337.00
62.5187 370.00
62.5839 372.00
62.6491 371.00
62.7143 411.00
62.7795 376.00
62.8447 357.00
62.9099 365.00
62.9751 373.00
63.0403 368.00
63.1055 363.00
63.1707 378.00
63.2359 460.00
63.3011 416.00
63.3663 419.00
63.4315 406.00
63.4967 465.00
63.5619 410.00
63.6271 456.00
63.6923 397.00
63.7575 380.00
63.8227 445.00
63.8879 377.00
63.9531 346.00
64.0183 374.00
64.0835 401.00
64.1487 370.00
64.2139 372.00
64.2791 385.00
64.3443 347.00
64.4095 353.00
64.4747 320.00
64.5399 346.00
64.6051 361.00
64.6703 316.00
64.7355 385.00
64.8007 389.00
64.8659 370.00
64.9311 349.00
64.9963 335.00
65.0615 351.00
65.1267 378.00
65.1919 372.00
65.2571 338.00
65.3223 408.00
65.3875 480.00
65.4527 408.00
65.5179 396.00
65.5831 371.00
65.6483 396.00
65.7135 392.00
65.7787 369.00
65.8439 357.00
65.9091 357.00
65.9743 363.00
66.0395 359.00
66.1047 331.00
66.1699 354.00
66.2351 364.00
66.3003 359.00
66.3655 365.00
66.4307 375.00
66.4959 381.00
66.561 405.00
66.6263 335.00
66.6915 327.00
66.7566 333.00
66.8218 322.00
66.887 349.00
66.9522 357.00
67.0174 376.00
67.0826 356.00
67.1478 397.00
67.213 340.00
67.2782 374.00
67.3434 347.00
67.4086 365.00
67.4738 348.00
67.539 361.00
67.6042 322.00
67.6694 331.00
67.7346 348.00
67.7998 316.00
67.865 340.00
67.9302 336.00
67.9954 361.00
68.0606 322.00
68.1258 341.00
68.191 351.00
68.2562 332.00
68.3214 361.00
68.3866 341.00
68.4518 313.00
68.517 313.00
68.5822 349.00
68.6474 335.00
68.7126 351.00
68.7778 357.00
68.843 365.00
68.9082 361.00
68.9734 340.00
69.0386 353.00
69.1038 338.00
69.169 370.00
69.2342 358.00
69.2994 386.00
69.3646 355.00
69.4298 345.00
69.495 337.00
69.5602 350.00
69.6254 324.00
69.6906 332.00
69.7558 333.00
69.821 327.00
69.8862 345.00
69.9514 342.00
70.0166 341.00
70.0818 276.00
70.147 315.00
70.2122 308.00
70.2774 342.00
70.3426 348.00
70.4078 324.00
70.473 314.00
70.5382 348.00
70.6034 365.00
70.6686 339.00
70.7338 334.00
70.799 370.00
70.8642 346.00
70.9294 320.00
70.9946 359.00
71.0598 326.00
71.125 310.00
71.1902 334.00
71.2554 314.00
71.3205 339.00
71.3858 303.00
71.451 314.00
71.5162 332.00
71.5813 317.00
71.6465 306.00
71.7117 343.00
71.7769 346.00
71.8421 339.00
71.9073 342.00
71.9725 339.00
72.0377 351.00
72.1029 318.00
72.1681 333.00
72.2333 311.00
72.2985 355.00
72.3637 332.00
72.4289 307.00
72.4941 322.00
72.5593 308.00
72.6245 342.00
72.6897 333.00
72.7549 324.00
72.8201 328.00
72.8853 323.00
72.9505 305.00
73.0157 318.00
73.0809 299.00
73.1461 315.00
73.2113 307.00
73.2765 340.00
73.3417 316.00
73.4069 364.00
73.4721 365.00
73.5373 343.00
73.6025 348.00
73.6677 352.00
73.7329 372.00
73.7981 341.00
73.8633 380.00
73.9285 401.00
73.9937 346.00
74.0589 372.00
74.1241 352.00
74.1893 347.00
74.2545 324.00
74.3197 346.00
74.3849 297.00
74.4501 329.00
74.5153 313.00
74.5805 323.00
74.6457 366.00
74.7109 304.00
74.7761 307.00
74.8413 338.00
74.9065 357.00
74.9717 344.00
75.0369 346.00
75.1021 345.00
75.1673 315.00
75.2325 318.00
75.2977 321.00
75.3629 328.00
75.4281 325.00
75.4933 320.00
75.5585 329.00
75.6237 346.00
75.6889 338.00
75.7541 321.00
75.8193 322.00
75.8845 309.00
75.9497 317.00
76.0149 321.00
76.0801 318.00
76.1452 287.00
76.2104 330.00
76.2756 325.00
76.3409 313.00
76.406 336.00
76.4712 333.00
76.5364 321.00
76.6016 355.00
76.6668 301.00
76.732 347.00
76.7972 370.00
76.8624 330.00
76.9276 353.00
76.9928 326.00
77.058 306.00
77.1232 341.00
77.1884 348.00
77.2536 317.00
77.3188 355.00
77.384 369.00
77.4492 354.00
77.5144 339.00
77.5796 313.00
77.6448 324.00
77.71 353.00
77.7752 353.00
77.8404 323.00
77.9056 291.00
77.9708 319.00
78.036 322.00
78.1012 325.00
78.1664 338.00
78.2316 332.00
78.2968 329.00
78.362 325.00
78.4272 346.00
78.4924 302.00
78.5576 353.00
78.6228 345.00
78.688 302.00
78.7532 339.00
78.8184 325.00
78.8836 340.00
78.9488 350.00
79.014 328.00
79.0792 355.00
79.1444 309.00
79.2096 327.00
79.2748 314.00
79.34 293.00
79.4052 300.00
79.4704 316.00
79.5356 309.00
79.6008 329.00
79.666 339.00
79.7312 353.00
79.7964 301.00
79.8616 327.00
79.9268 321.00
79.992 339.00
80.0572 333.00
80.1224 322.00
80.1876 319.00
80.2528 365.00
80.318 312.00
80.3832 315.00
80.4484 321.00
80.5136 349.00
80.5788 313.00
80.644 320.00
80.7092 335.00
80.7744 327.00
80.8396 330.00
80.9048 319.00
80.9699 321.00
81.0351 336.00
81.1003 317.00
81.1655 326.00
81.2307 299.00
81.2959 312.00
81.3611 324.00
81.4263 342.00
81.4915 334.00
81.5567 302.00
81.6219 328.00
81.6871 331.00
81.7523 336.00
81.8175 358.00
81.8827 330.00
81.9479 282.00
82.0131 334.00
82.0783 347.00
82.1435 313.00
82.2087 328.00
82.2739 319.00
82.3391 334.00
82.4043 311.00
82.4695 313.00
82.5347 333.00
82.5999 300.00
82.6651 350.00
82.7303 361.00
82.7955 314.00
82.8607 310.00
82.9259 299.00
82.9911 310.00
83.0563 333.00
83.1215 322.00
83.1867 358.00
83.2519 339.00
83.3171 284.00
83.3823 297.00
83.4475 295.00
83.5127 310.00
83.5779 311.00
83.6431 304.00
83.7083 325.00
83.7735 330.00
83.8387 300.00
83.9039 338.00
83.9691 316.00
84.0343 328.00
84.0995 323.00
84.1647 289.00
84.2299 283.00
84.2951 294.00
84.3603 305.00
84.4255 300.00
84.4907 296.00
84.5559 271.00
84.6211 302.00
84.6863 319.00
84.7515 320.00
84.8167 315.00
84.8819 315.00
84.9471 308.00
85.0123 295.00
85.0775 299.00
85.1427 289.00
85.2079 323.00
85.2731 302.00
85.3383 306.00
85.4035 289.00
85.4687 322.00
85.5339 290.00
85.5991 260.00
85.6643 275.00
85.7295 284.00
85.7946 296.00
85.8598 276.00
85.925 282.00
85.9903 292.00
86.0554 312.00
86.1206 312.00
86.1858 342.00
86.251 319.00
86.3162 298.00
86.3814 303.00
86.4466 333.00
86.5118 296.00
86.577 290.00
86.6422 278.00
86.7074 279.00
86.7726 308.00
86.8378 300.00
86.903 294.00
86.9682 277.00
87.0334 302.00
87.0986 272.00
87.1638 283.00
87.229 309.00
87.2942 281.00
87.3594 281.00
87.4246 287.00
87.4898 261.00
87.555 317.00
87.6202 277.00
87.6854 265.00
87.7506 288.00
87.8158 295.00
87.881 270.00
87.9462 302.00
88.0114 289.00
88.0766 274.00
88.1418 277.00
88.207 266.00
88.2722 284.00
88.3374 302.00
88.4026 299.00
88.4678 272.00
88.533 247.00
88.5982 263.00
88.6634 245.00
88.7286 280.00
88.7938 275.00
88.859 279.00
88.9242 306.00
88.9894 265.00
89.0546 278.00
89.1198 279.00
89.185 266.00
89.2502 284.00
89.3154 244.00
89.3806 249.00
89.4458 281.00
89.511 207.00
89.5762 273.00
89.6414 242.00
89.7066 266.00
89.7718 286.00
89.837 232.00
89.9022 258.00
89.9674 300.00
90.0326 286.00
90.0978 285.00
90.163 272.00
90.2282 250.00
90.2934 262.00
90.3586 244.00
90.4238 245.00
90.489 266.00
90.5542 279.00
90.6193 233.00
90.6845 272.00
90.7497 293.00
90.8149 243.00
90.8801 275.00
90.9453 279.00
91.0105 265.00
91.0757 298.00
91.1409 262.00
91.2061 270.00
91.2713 285.00
91.3365 275.00
91.4017 263.00
91.4669 276.00
91.5321 248.00
91.5973 259.00
91.6625 262.00
91.7277 259.00
91.7929 288.00
91.8581 271.00
91.9233 269.00
91.9885 248.00
92.0537 259.00
92.1189 273.00
92.1841 283.00
92.2493 301.00
92.3145 266.00
92.3797 247.00
92.4449 279.00
92.5101 296.00
92.5753 269.00
92.6405 264.00
92.7057 260.00
92.7709 264.00
92.8361 219.00
92.9013 272.00
92.9665 270.00
93.0317 246.00
93.0969 258.00
93.1621 231.00
93.2273 286.00
93.2925 257.00
93.3577 269.00
93.4229 272.00
93.4881 246.00
93.5533 247.00
93.6185 257.00
93.6837 270.00
93.7489 265.00
93.8141 258.00
93.8793 227.00
93.9445 233.00
94.0097 285.00
94.0749 244.00
94.1401 293.00
94.2053 268.00
94.2705 258.00
94.3357 277.00
94.4009 261.00
94.4661 257.00
94.5313 277.00
94.5965 243.00
94.6617 241.00
94.7269 250.00
94.7921 257.00
94.8573 244.00
94.9225 244.00
94.9877 260.00
95.0529 265.00
95.1181 270.00
95.1833 272.00
95.2485 239.00
95.3137 257.00
95.3789 247.00
95.444 270.00
95.5092 271.00
95.5744 266.00
95.6396 296.00
95.7048 257.00
95.77 231.00
95.8352 268.00
95.9004 268.00
95.9656 261.00
96.0308 239.00
96.096 276.00
96.1612 260.00
96.2264 269.00
96.2916 276.00
96.3568 288.00
96.422 258.00
96.4872 266.00
96.5524 260.00
96.6176 280.00
96.6828 278.00
96.748 277.00
96.8132 267.00
96.8784 237.00
96.9436 309.00
97.0088 247.00
97.074 248.00
97.1392 261.00
97.2044 242.00
97.2696 242.00
97.3348 271.00
97.4 267.00
97.4652 250.00
97.5304 283.00
97.5956 244.00
97.6608 246.00
97.726 233.00
97.7912 272.00
97.8564 257.00
97.9216 281.00
97.9868 244.00
98.052 236.00
98.1172 227.00
98.1824 228.00
98.2476 269.00
98.3128 258.00
98.378 272.00
98.4432 226.00
98.5084 250.00
98.5736 270.00
98.6388 244.00
98.704 280.00
98.7692 289.00
98.8344 283.00
98.8996 262.00
98.9648 264.00
99.03 242.00
99.0952 277.00
99.1604 308.00
99.2256 283.00
99.2908 241.00
99.356 277.00
99.4212 246.00
99.4864 239.00
99.5516 242.00
99.6168 270.00
99.682 214.00
99.7472 306.00
99.8124 265.00
99.8776 281.00
99.9428 240.00
100.008 278.00
100.073 260.00
100.095 242.00