File: data/xrd_creation/results/PG_2140-1.xy
9.903433 2473.00
9.968632 2396.00
10.0338 2524.00
10.099 2357.00
10.1642 2379.00
10.2294 2383.00
10.2946 2334.00
10.3598 2339.00
10.425 2373.00
10.4902 2284.00
10.5554 2245.00
10.6206 2306.00
10.6858 2215.00
10.751 2320.00
10.8162 2172.00
10.8814 2175.00
10.9466 2170.00
11.0118 2176.00
11.077 2104.00
11.1422 2071.00
11.2074 1995.00
11.2726 2048.00
11.3378 2094.00
11.403 2009.00
11.4682 2034.00
11.5334 2000.00
11.5986 2045.00
11.6638 2057.00
11.729 2016.00
11.7942 1908.00
11.8594 1938.00
11.9246 1899.00
11.9898 1918.00
12.055 1867.00
12.1202 1937.00
12.1854 1873.00
12.2506 1935.00
12.3158 1830.00
12.381 1937.00
12.4462 1862.00
12.5114 1890.00
12.5766 1752.00
12.6418 1776.00
12.707 1883.00
12.7722 1680.00
12.8374 1742.00
12.9026 1760.00
12.9678 1778.00
13.033 1737.00
13.0982 1659.00
13.1634 1672.00
13.2286 1693.00
13.2938 1687.00
13.359 1658.00
13.4242 1586.00
13.4894 1715.00
13.5546 1670.00
13.6198 1610.00
13.685 1588.00
13.7502 1634.00
13.8154 1609.00
13.8805 1635.00
13.9457 1637.00
14.0109 1585.00
14.0761 1578.00
14.1413 1639.00
14.2065 1541.00
14.2717 1548.00
14.3369 1577.00
14.4021 1625.00
14.4673 1520.00
14.5325 1527.00
14.5977 1539.00
14.6629 1538.00
14.7281 1548.00
14.7933 1584.00
14.8585 1557.00
14.9237 1585.00
14.9889 1583.00
15.0541 1633.00
15.1193 1633.00
15.1845 1694.00
15.2497 1930.00
15.3149 2162.00
15.3801 2380.00
15.4453 1972.00
15.5105 1781.00
15.5757 1855.00
15.6409 2016.00
15.7061 2392.00
15.7713 3080.00
15.8365 4052.00
15.9017 5187.00
15.9669 6055.00
16.0321 5080.00
16.0973 3257.00
16.1625 2385.00
16.2277 1932.00
16.2929 1771.00
16.3581 1623.00
16.4233 1557.00
16.4885 1454.00
16.5537 1486.00
16.6189 1507.00
16.6841 1458.00
16.7493 1450.00
16.8145 1485.00
16.8797 1391.00
16.9449 1456.00
17.0101 1376.00
17.0753 1392.00
17.1405 1366.00
17.2057 1345.00
17.2709 1422.00
17.3361 1356.00
17.4013 1463.00
17.4665 1394.00
17.5317 1440.00
17.5969 1372.00
17.6621 1363.00
17.7273 1432.00
17.7925 1511.00
17.8577 1552.00
17.9229 1737.00
17.9881 1819.00
18.0533 1517.00
18.1185 1400.00
18.1837 1384.00
18.2489 1339.00
18.3141 1318.00
18.3793 1271.00
18.4445 1306.00
18.5097 1273.00
18.5749 1320.00
18.6401 1237.00
18.7052 1301.00
18.7704 1252.00
18.8356 1162.00
18.9008 1194.00
18.966 1182.00
19.0312 1231.00
19.0964 1166.00
19.1616 1190.00
19.2268 1162.00
19.292 1263.00
19.3572 1166.00
19.4224 1178.00
19.4876 1207.00
19.5528 1180.00
19.618 1216.00
19.6832 1177.00
19.7484 1138.00
19.8136 1125.00
19.8788 1148.00
19.944 1179.00
20.0092 1168.00
20.0744 1144.00
20.1396 1170.00
20.2048 1181.00
20.27 1156.00
20.3352 1231.00
20.4004 1118.00
20.4656 1121.00
20.5308 1074.00
20.596 1108.00
20.6612 1089.00
20.7264 1119.00
20.7916 1115.00
20.8568 1140.00
20.922 1085.00
20.9872 1139.00
21.0524 1107.00
21.1176 1134.00
21.1828 1117.00
21.248 1225.00
21.3132 1135.00
21.3784 1057.00
21.4436 1140.00
21.5088 1077.00
21.574 1113.00
21.6392 1074.00
21.7044 1041.00
21.7696 1077.00
21.8348 1076.00
21.9 1078.00
21.9652 1096.00
22.0304 1047.00
22.0956 1064.00
22.1608 1098.00
22.226 1078.00
22.2912 1110.00
22.3564 1036.00
22.4216 1075.00
22.4868 1059.00
22.552 1093.00
22.6172 1037.00
22.6824 1043.00
22.7476 993.00
22.8128 1070.00
22.878 982.00
22.9432 970.00
23.0084 1026.00
23.0736 961.00
23.1388 1026.00
23.204 958.00
23.2692 923.00
23.3344 982.00
23.3996 998.00
23.4647 948.00
23.5299 1047.00
23.5951 982.00
23.6603 1017.00
23.7255 980.00
23.7907 979.00
23.8559 941.00
23.9211 949.00
23.9863 960.00
24.0515 947.00
24.1167 962.00
24.1819 954.00
24.2471 941.00
24.3123 991.00
24.3775 960.00
24.4427 977.00
24.5079 954.00
24.5731 985.00
24.6383 1027.00
24.7035 991.00
24.7687 958.00
24.8339 1065.00
24.8991 1085.00
24.9643 1046.00
25.0295 1085.00
25.0947 1006.00
25.1599 1025.00
25.2251 1028.00
25.2903 943.00
25.3555 989.00
25.4207 882.00
25.4859 975.00
25.5511 937.00
25.6163 977.00
25.6815 972.00
25.7467 966.00
25.8119 888.00
25.8771 971.00
25.9423 929.00
26.0075 914.00
26.0727 896.00
26.1379 933.00
26.2031 960.00
26.2683 913.00
26.3335 871.00
26.3987 957.00
26.4639 943.00
26.5291 936.00
26.5943 989.00
26.6595 1042.00
26.7247 1032.00
26.7899 1066.00
26.8551 1096.00
26.9203 1126.00
26.9855 1162.00
27.0507 1135.00
27.1159 1248.00
27.1811 1277.00
27.2463 1502.00
27.3115 1782.00
27.3767 2209.00
27.4419 3134.00
27.5071 4181.00
27.5723 5294.00
27.6375 5157.00
27.7027 3938.00
27.7679 2773.00
27.8331 2255.00
27.8983 2035.00
27.9635 2110.00
28.0287 2521.00
28.0939 3147.00
28.1591 4712.00
28.2243 6479.00
28.2894 7790.00
28.3546 7076.00
28.4198 5178.00
28.485 3818.00
28.5502 3450.00
28.6154 3438.00
28.6806 3583.00
28.7458 3903.00
28.811 4097.00
28.8762 4614.00
28.9414 4529.00
29.0066 4457.00
29.0718 4361.00
29.137 4176.00
29.2022 4228.00
29.2674 4802.00
29.3326 5894.00
29.3978 6790.00
29.463 5799.00
29.5282 4004.00
29.5934 2639.00
29.6586 2095.00
29.7238 1708.00
29.789 1542.00
29.8542 1328.00
29.9194 1306.00
29.9846 1094.00
30.0498 1164.00
30.115 1098.00
30.1802 1056.00
30.2454 1089.00
30.3106 1209.00
30.3758 1269.00
30.441 1636.00
30.5062 2307.00
30.5714 4149.00
30.6366 6407.00
30.7018 4795.00
30.767 2583.00
30.8322 1502.00
30.8974 1272.00
30.9626 1085.00
31.0278 1085.00
31.093 983.00
31.1582 974.00
31.2234 914.00
31.2886 945.00
31.3538 915.00
31.419 954.00
31.4842 935.00
31.5494 978.00
31.6146 1053.00
31.6798 1155.00
31.745 1445.00
31.8102 1705.00
31.8754 2072.00
31.9406 2345.00
32.0058 2434.00
32.071 2887.00
32.1362 3178.00
32.2014 2858.00
32.2666 2024.00
32.3318 1475.00
32.397 1212.00
32.4622 1088.00
32.5274 956.00
32.5926 1009.00
32.6578 1039.00
32.723 1118.00
32.7882 1331.00
32.8534 1459.00
32.9186 1693.00
32.9838 1553.00
33.0489 1143.00
33.1141 1004.00
33.1793 872.00
33.2445 827.00
33.3097 798.00
33.3749 838.00
33.4401 764.00
33.5053 802.00
33.5705 773.00
33.6357 763.00
33.7009 737.00
33.7661 715.00
33.8313 755.00
33.8965 798.00
33.9617 764.00
34.0269 736.00
34.0921 765.00
34.1573 728.00
34.2225 781.00
34.2877 845.00
34.3529 875.00
34.4181 895.00
34.4833 942.00
34.5485 878.00
34.6137 887.00
34.6789 850.00
34.7441 767.00
34.8093 765.00
34.8745 728.00
34.9397 733.00
35.0049 775.00
35.0701 693.00
35.1353 791.00
35.2005 752.00
35.2657 759.00
35.3309 721.00
35.3961 752.00
35.4613 767.00
35.5265 880.00
35.5917 894.00
35.6569 961.00
35.7221 1014.00
35.7873 1274.00
35.8525 1580.00
35.9177 1834.00
35.9829 2208.00
36.0481 2392.00
36.1133 2190.00
36.1785 1860.00
36.2437 1621.00
36.3089 1515.00
36.3741 1359.00
36.4393 1108.00
36.5045 984.00
36.5697 878.00
36.6349 787.00
36.7001 776.00
36.7653 731.00
36.8305 696.00
36.8957 692.00
36.9609 655.00
37.0261 648.00
37.0913 636.00
37.1565 688.00
37.2217 697.00
37.2869 612.00
37.3521 627.00
37.4173 657.00
37.4825 699.00
37.5477 656.00
37.6129 664.00
37.6781 652.00
37.7433 630.00
37.8085 736.00
37.8736 745.00
37.9388 768.00
38.004 904.00
38.0692 1126.00
38.1344 1336.00
38.1996 1203.00
38.2648 1052.00
38.33 832.00
38.3952 774.00
38.4604 679.00
38.5256 612.00
38.5908 682.00
38.656 630.00
38.7212 618.00
38.7864 634.00
38.8516 641.00
38.9168 692.00
38.982 656.00
39.0472 724.00
39.1124 701.00
39.1776 774.00
39.2428 786.00
39.308 889.00
39.3732 1041.00
39.4384 1102.00
39.5036 1467.00
39.5688 1878.00
39.634 2820.00
39.6992 3900.00
39.7644 4838.00
39.8296 4705.00
39.8948 3732.00
39.96 2771.00
40.0252 1884.00
40.0904 1393.00
40.1556 1161.00
40.2208 975.00
40.286 856.00
40.3512 815.00
40.4164 737.00
40.4816 687.00
40.5468 727.00
40.612 664.00
40.6772 663.00
40.7424 715.00
40.8076 681.00
40.8728 680.00
40.938 631.00
41.0032 633.00
41.0684 655.00
41.1336 606.00
41.1988 613.00
41.264 663.00
41.3292 620.00
41.3944 614.00
41.4596 572.00
41.5248 611.00
41.59 606.00
41.6552 567.00
41.7204 621.00
41.7856 638.00
41.8508 625.00
41.916 615.00
41.9812 627.00
42.0464 643.00
42.1116 698.00
42.1768 667.00
42.242 768.00
42.3072 798.00
42.3724 928.00
42.4376 1180.00
42.5028 1321.00
42.568 1318.00
42.6332 1258.00
42.6983 1024.00
42.7635 901.00
42.8287 843.00
42.8939 793.00
42.9591 741.00
43.0243 724.00
43.0895 680.00
43.1547 668.00
43.2199 614.00
43.2851 597.00
43.3503 642.00
43.4155 661.00
43.4807 632.00
43.5459 601.00
43.6111 597.00
43.6763 583.00
43.7415 608.00
43.8067 590.00
43.8719 647.00
43.9371 578.00
44.0023 577.00
44.0675 569.00
44.1327 613.00
44.1979 612.00
44.2631 615.00
44.3283 651.00
44.3935 639.00
44.4587 648.00
44.5239 664.00
44.5891 673.00
44.6543 640.00
44.7195 737.00
44.7847 665.00
44.8499 733.00
44.9151 672.00
44.9803 722.00
45.0455 787.00
45.1107 807.00
45.1759 905.00
45.2411 904.00
45.3063 1056.00
45.3715 1227.00
45.4367 1211.00
45.5019 1251.00
45.5671 1070.00
45.6323 1027.00
45.6975 934.00
45.7627 904.00
45.8279 859.00
45.8931 805.00
45.9583 860.00
46.0235 822.00
46.0887 791.00
46.1539 776.00
46.2191 754.00
46.2843 742.00
46.3495 888.00
46.4147 858.00
46.4799 1030.00
46.5451 901.00
46.6103 906.00
46.6755 776.00
46.7407 657.00
46.8059 680.00
46.8711 700.00
46.9363 714.00
47.0015 716.00
47.0667 735.00
47.1319 737.00
47.1971 883.00
47.2623 1047.00
47.3275 1229.00
47.3927 1358.00
47.4579 1283.00
47.523 1172.00
47.5882 946.00
47.6534 901.00
47.7186 841.00
47.7838 772.00
47.849 787.00
47.9142 715.00
47.9794 867.00
48.0446 916.00
48.1098 977.00
48.175 1050.00
48.2402 1197.00
48.3054 1423.00
48.3706 1790.00
48.4358 2303.00
48.501 2506.00
48.5662 2796.00
48.6314 3020.00
48.6966 3264.00
48.7618 3641.00
48.827 4672.00
48.8922 5545.00
48.9574 5449.00
49.0226 4935.00
49.0878 4016.00
49.153 3069.00
49.2182 2393.00
49.2834 1864.00
49.3486 1624.00
49.4138 1532.00
49.479 1584.00
49.5442 1559.00
49.6094 1379.00
49.6746 1169.00
49.7398 1047.00
49.805 931.00
49.8702 875.00
49.9354 846.00
50.0006 856.00
50.0658 879.00
50.131 1013.00
50.1962 1139.00
50.2614 1112.00
50.3266 991.00
50.3918 861.00
50.457 880.00
50.5222 763.00
50.5874 669.00
50.6526 670.00
50.7178 707.00
50.783 688.00
50.8482 696.00
50.9134 774.00
50.9786 857.00
51.0438 1057.00
51.109 1021.00
51.1742 939.00
51.2394 841.00
51.3046 678.00
51.3698 601.00
51.435 641.00
51.5002 578.00
51.5654 620.00
51.6306 555.00
51.6958 517.00
51.761 574.00
51.8262 564.00
51.8914 548.00
51.9566 562.00
52.0218 565.00
52.087 531.00
52.1522 535.00
52.2174 516.00
52.2826 564.00
52.3477 592.00
52.4129 618.00
52.4781 524.00
52.5433 535.00
52.6085 617.00
52.6737 615.00
52.7389 550.00
52.8041 560.00
52.8693 623.00
52.9345 641.00
52.9997 703.00
53.0649 709.00
53.1301 816.00
53.1953 975.00
53.2605 1174.00
53.3257 1472.00
53.3909 1760.00
53.4561 1717.00
53.5213 1600.00
53.5865 1324.00
53.6517 1150.00
53.7169 977.00
53.7821 787.00
53.8473 798.00
53.9125 796.00
53.9777 745.00
54.0429 764.00
54.1081 811.00
54.1733 829.00
54.2385 788.00
54.3037 836.00
54.3689 858.00
54.4341 807.00
54.4993 875.00
54.5645 925.00
54.6297 876.00
54.6949 1015.00
54.7601 1031.00
54.8253 1053.00
54.8905 1072.00
54.9557 1125.00
55.0209 1122.00
55.0861 1167.00
55.1513 1203.00
55.2165 1188.00
55.2817 1182.00
55.3469 1304.00
55.4121 1473.00
55.4773 1645.00
55.5425 1808.00
55.6077 1792.00
55.6729 1638.00
55.7381 1513.00
55.8033 1267.00
55.8685 1084.00
55.9337 1043.00
55.9989 940.00
56.0641 905.00
56.1293 942.00
56.1945 1026.00
56.2597 1207.00
56.3249 1261.00
56.3901 1238.00
56.4553 1276.00
56.5205 1268.00
56.5857 1264.00
56.6509 1120.00
56.7161 1009.00
56.7813 948.00
56.8465 796.00
56.9117 736.00
56.9769 666.00
57.042 635.00
57.1073 647.00
57.1724 616.00
57.2376 612.00
57.3028 566.00
57.368 571.00
57.4332 544.00
57.4984 579.00
57.5636 614.00
57.6288 578.00
57.694 571.00
57.7592 579.00
57.8244 641.00
57.8896 694.00
57.9548 725.00
58.02 865.00
58.0852 819.00
58.1504 860.00
58.2156 806.00
58.2808 751.00
58.346 762.00
58.4112 695.00
58.4764 705.00
58.5416 685.00
58.6068 637.00
58.672 660.00
58.7372 671.00
58.8024 712.00
58.8676 736.00
58.9328 814.00
58.998 846.00
59.0632 880.00
59.1284 919.00
59.1936 884.00
59.2588 893.00
59.324 870.00
59.3892 836.00
59.4544 865.00
59.5196 847.00
59.5848 895.00
59.65 868.00
59.7152 873.00
59.7804 875.00
59.8456 1001.00
59.9108 984.00
59.976 1082.00
60.0412 1129.00
60.1064 1210.00
60.1716 1198.00
60.2368 1224.00
60.302 1232.00
60.3672 1168.00
60.4324 1201.00
60.4976 1199.00
60.5628 1172.00
60.628 1083.00
60.6932 1023.00
60.7584 941.00
60.8236 891.00
60.8888 753.00
60.954 750.00
61.0192 676.00
61.0844 622.00
61.1496 617.00
61.2148 534.00
61.28 557.00
61.3452 598.00
61.4104 582.00
61.4756 543.00
61.5408 539.00
61.606 531.00
61.6712 515.00
61.7364 542.00
61.8016 516.00
61.8667 541.00
61.932 507.00
61.9971 490.00
62.0623 461.00
62.1275 487.00
62.1927 493.00
62.2579 475.00
62.3231 459.00
62.3883 507.00
62.4535 485.00
62.5187 489.00
62.5839 488.00
62.6491 492.00
62.7143 488.00
62.7795 533.00
62.8447 526.00
62.9099 512.00
62.9751 536.00
63.0403 611.00
63.1055 643.00
63.1707 706.00
63.2359 924.00
63.3011 1078.00
63.3663 1058.00
63.4315 937.00
63.4967 845.00
63.5619 798.00
63.6271 674.00
63.6923 617.00
63.7575 624.00
63.8227 631.00
63.8879 588.00
63.9531 694.00
64.0183 760.00
64.0835 899.00
64.1487 1051.00
64.2139 1225.00
64.2791 1291.00
64.3443 1237.00
64.4095 1182.00
64.4747 1043.00
64.5399 920.00
64.6051 777.00
64.6703 755.00
64.7355 670.00
64.8007 654.00
64.8659 635.00
64.9311 634.00
64.9963 589.00
65.0615 599.00
65.1267 640.00
65.1919 668.00
65.2571 725.00
65.3223 761.00
65.3875 738.00
65.4527 748.00
65.5179 707.00
65.5831 596.00
65.6483 654.00
65.7135 584.00
65.7787 535.00
65.8439 510.00
65.9091 516.00
65.9743 519.00
66.0395 526.00
66.1047 580.00
66.1699 565.00
66.2351 572.00
66.3003 577.00
66.3655 548.00
66.4307 568.00
66.4959 607.00
66.561 574.00
66.6263 618.00
66.6915 641.00
66.7566 656.00
66.8218 629.00
66.887 653.00
66.9522 616.00
67.0174 571.00
67.0826 549.00
67.1478 514.00
67.213 474.00
67.2782 445.00
67.3434 474.00
67.4086 434.00
67.4738 435.00
67.539 424.00
67.6042 451.00
67.6694 452.00
67.7346 437.00
67.7998 403.00
67.865 472.00
67.9302 478.00
67.9954 399.00
68.0606 418.00
68.1258 452.00
68.191 395.00
68.2562 470.00
68.3214 435.00
68.3866 426.00
68.4518 491.00
68.517 472.00
68.5822 502.00
68.6474 507.00
68.7126 507.00
68.7778 471.00
68.843 511.00
68.9082 535.00
68.9734 559.00
69.0386 568.00
69.1038 542.00
69.169 555.00
69.2342 564.00
69.2994 571.00
69.3646 585.00
69.4298 542.00
69.495 544.00
69.5602 593.00
69.6254 631.00
69.6906 706.00
69.7558 743.00
69.821 871.00
69.8862 968.00
69.9514 1016.00
70.0166 985.00
70.0818 978.00
70.147 918.00
70.2122 844.00
70.2774 714.00
70.3426 659.00
70.4078 600.00
70.473 586.00
70.5382 525.00
70.6034 536.00
70.6686 498.00
70.7338 513.00
70.799 540.00
70.8642 536.00
70.9294 548.00
70.9946 582.00
71.0598 647.00
71.125 622.00
71.1902 662.00
71.2554 653.00
71.3205 617.00
71.3858 606.00
71.451 537.00
71.5162 563.00
71.5813 534.00
71.6465 463.00
71.7117 515.00
71.7769 490.00
71.8421 482.00
71.9073 458.00
71.9725 458.00
72.0377 476.00
72.1029 471.00
72.1681 465.00
72.2333 475.00
72.2985 475.00
72.3637 468.00
72.4289 475.00
72.4941 519.00
72.5593 494.00
72.6245 514.00
72.6897 512.00
72.7549 567.00
72.8201 561.00
72.8853 620.00
72.9505 621.00
73.0157 602.00
73.0809 693.00
73.1461 650.00
73.2113 706.00
73.2765 663.00
73.3417 691.00
73.4069 626.00
73.4721 626.00
73.5373 642.00
73.6025 623.00
73.6677 652.00
73.7329 666.00
73.7981 595.00
73.8633 622.00
73.9285 598.00
73.9937 574.00
74.0589 605.00
74.1241 527.00
74.1893 568.00
74.2545 523.00
74.3197 579.00
74.3849 541.00
74.4501 513.00
74.5153 525.00
74.5805 501.00
74.6457 499.00
74.7109 526.00
74.7761 504.00
74.8413 525.00
74.9065 482.00
74.9717 502.00
75.0369 539.00
75.1021 495.00
75.1673 485.00
75.2325 522.00
75.2977 530.00
75.3629 553.00
75.4281 546.00
75.4933 568.00
75.5585 564.00
75.6237 573.00
75.6889 586.00
75.7541 678.00
75.8193 648.00
75.8845 769.00
75.9497 794.00
76.0149 816.00
76.0801 926.00
76.1452 995.00
76.2104 943.00
76.2756 970.00
76.3409 960.00
76.406 946.00
76.4712 858.00
76.5364 948.00
76.6016 943.00
76.6668 869.00
76.732 890.00
76.7972 860.00
76.8624 899.00
76.9276 807.00
76.9928 812.00
77.058 781.00
77.1232 796.00
77.1884 854.00
77.2536 889.00
77.3188 958.00
77.384 979.00
77.4492 1036.00
77.5144 1057.00
77.5796 1174.00
77.6448 1248.00
77.71 1311.00
77.7752 1320.00
77.8404 1199.00
77.9056 1229.00
77.9708 1196.00
78.036 1201.00
78.1012 1104.00
78.1664 1081.00
78.2316 962.00
78.2968 888.00
78.362 903.00
78.4272 847.00
78.4924 858.00
78.5576 851.00
78.6228 906.00
78.688 843.00
78.7532 860.00
78.8184 902.00
78.8836 829.00
78.9488 788.00
79.014 764.00
79.0792 702.00
79.1444 750.00
79.2096 673.00
79.2748 573.00
79.34 653.00
79.4052 592.00
79.4704 538.00
79.5356 572.00
79.6008 557.00
79.666 599.00
79.7312 560.00
79.7964 612.00
79.8616 694.00
79.9268 602.00
79.992 604.00
80.0572 627.00
80.1224 579.00
80.1876 588.00
80.2528 575.00
80.318 542.00
80.3832 517.00
80.4484 525.00
80.5136 505.00
80.5788 525.00
80.644 493.00
80.7092 476.00
80.7744 524.00
80.8396 502.00
80.9048 541.00
80.9699 542.00
81.0351 524.00
81.1003 518.00
81.1655 522.00
81.2307 503.00
81.2959 530.00
81.3611 490.00
81.4263 488.00
81.4915 464.00
81.5567 471.00
81.6219 471.00
81.6871 482.00
81.7523 484.00
81.8175 523.00
81.8827 550.00
81.9479 533.00
82.0131 519.00
82.0783 508.00
82.1435 588.00
82.2087 612.00
82.2739 687.00
82.3391 677.00
82.4043 638.00
82.4695 695.00
82.5347 786.00
82.5999 763.00
82.6651 730.00
82.7303 686.00
82.7955 609.00
82.8607 585.00
82.9259 545.00
82.9911 533.00
83.0563 495.00
83.1215 484.00
83.1867 457.00
83.2519 462.00
83.3171 471.00
83.3823 459.00
83.4475 411.00
83.5127 451.00
83.5779 460.00
83.6431 474.00
83.7083 427.00
83.7735 424.00
83.8387 452.00
83.9039 444.00
83.9691 486.00
84.0343 431.00
84.0995 460.00
84.1647 491.00
84.2299 492.00
84.2951 482.00
84.3603 554.00
84.4255 550.00
84.4907 519.00
84.5559 588.00
84.6211 574.00
84.6863 562.00
84.7515 574.00
84.8167 551.00
84.8819 606.00
84.9471 608.00
85.0123 597.00
85.0775 665.00
85.1427 631.00
85.2079 647.00
85.2731 655.00
85.3383 630.00
85.4035 654.00
85.4687 624.00
85.5339 579.00
85.5991 593.00
85.6643 548.00
85.7295 525.00
85.7946 564.00
85.8598 540.00
85.925 549.00
85.9903 516.00
86.0554 555.00
86.1206 504.00
86.1858 594.00
86.251 567.00
86.3162 544.00
86.3814 533.00
86.4466 543.00
86.5118 562.00
86.577 546.00
86.6422 571.00
86.7074 498.00
86.7726 574.00
86.8378 546.00
86.903 630.00
86.9682 581.00
87.0334 612.00
87.0986 620.00
87.1638 639.00
87.229 640.00
87.2942 620.00
87.3594 635.00
87.4246 658.00
87.4898 605.00
87.555 569.00
87.6202 593.00
87.6854 557.00
87.7506 533.00
87.8158 506.00
87.881 508.00
87.9462 555.00
88.0114 526.00
88.0766 500.00
88.1418 507.00
88.207 506.00
88.2722 499.00
88.3374 499.00
88.4026 510.00
88.4678 543.00
88.533 525.00
88.5982 603.00
88.6634 646.00
88.7286 648.00
88.7938 733.00
88.859 844.00
88.9242 858.00
88.9894 788.00
89.0546 766.00
89.1198 781.00
89.185 719.00
89.2502 753.00
89.3154 761.00
89.3806 651.00
89.4458 586.00
89.511 589.00
89.5762 553.00
89.6414 517.00
89.7066 498.00
89.7718 498.00
89.837 520.00
89.9022 556.00
89.9674 505.00
90.0326 619.00
90.0978 664.00
90.163 628.00
90.2282 629.00
90.2934 601.00
90.3586 642.00
90.4238 680.00
90.489 695.00
90.5542 724.00
90.6193 641.00
90.6845 652.00
90.7497 662.00
90.8149 610.00
90.8801 617.00
90.9453 640.00
91.0105 605.00
91.0757 562.00
91.1409 648.00
91.2061 565.00
91.2713 628.00
91.3365 606.00
91.4017 607.00
91.4669 639.00
91.5321 644.00
91.5973 589.00
91.6625 630.00
91.7277 570.00
91.7929 618.00
91.8581 568.00
91.9233 586.00
91.9885 620.00
92.0537 589.00
92.1189 598.00
92.1841 520.00
92.2493 529.00
92.3145 488.00
92.3797 504.00
92.4449 516.00
92.5101 529.00
92.5753 503.00
92.6405 522.00
92.7057 549.00
92.7709 505.00
92.8361 506.00
92.9013 549.00
92.9665 513.00
93.0317 499.00
93.0969 492.00
93.1621 523.00
93.2273 499.00
93.2925 483.00
93.3577 502.00
93.4229 511.00
93.4881 533.00
93.5533 561.00
93.6185 544.00
93.6837 494.00
93.7489 561.00
93.8141 516.00
93.8793 521.00
93.9445 554.00
94.0097 538.00
94.0749 513.00
94.1401 474.00
94.2053 513.00
94.2705 515.00
94.3357 536.00
94.4009 504.00
94.4661 482.00
94.5313 489.00
94.5965 504.00
94.6617 552.00
94.7269 491.00
94.7921 474.00
94.8573 492.00
94.9225 492.00
94.9877 481.00
95.0529 500.00
95.1181 509.00
95.1833 521.00
95.2485 494.00
95.3137 542.00
95.3789 536.00
95.444 563.00
95.5092 607.00
95.5744 642.00
95.6396 622.00
95.7048 693.00
95.77 735.00
95.8352 724.00
95.9004 768.00
95.9656 770.00
96.0308 720.00
96.096 742.00
96.1612 730.00
96.2264 633.00
96.2916 659.00
96.3568 603.00
96.422 614.00
96.4872 568.00
96.5524 578.00
96.6176 614.00
96.6828 578.00
96.748 639.00
96.8132 642.00
96.8784 602.00
96.9436 697.00
97.0088 651.00
97.074 661.00
97.1392 664.00
97.2044 660.00
97.2696 649.00
97.3348 628.00
97.4 601.00
97.4652 578.00
97.5304 581.00
97.5956 556.00
97.6608 571.00
97.726 551.00
97.7912 526.00
97.8564 547.00
97.9216 564.00
97.9868 566.00
98.052 555.00
98.1172 524.00
98.1824 534.00
98.2476 532.00
98.3128 538.00
98.378 482.00
98.4432 492.00
98.5084 502.00
98.5736 484.00
98.6388 508.00
98.704 532.00
98.7692 478.00
98.8344 495.00
98.8996 466.00
98.9648 477.00
99.03 488.00
99.0952 496.00
99.1604 426.00
99.2256 461.00
99.2908 446.00
99.356 470.00
99.4212 479.00
99.4864 509.00
99.5516 448.00
99.6168 446.00
99.682 444.00
99.7472 421.00
99.8124 430.00
99.8776 414.00
99.9428 453.00
100.008 460.00
100.073 462.00
100.095 454.00