File: data/xrd_creation/results/PG_2435-1.xy
9.903433 2683.00
9.968632 2548.00
10.0338 2509.00
10.099 2560.00
10.1642 2577.00
10.2294 2439.00
10.2946 2752.00
10.3598 2645.00
10.425 2595.00
10.4902 2397.00
10.5554 2342.00
10.6206 2275.00
10.6858 2279.00
10.751 2324.00
10.8162 2304.00
10.8814 2213.00
10.9466 2291.00
11.0118 2270.00
11.077 2188.00
11.1422 2214.00
11.2074 2100.00
11.2726 2155.00
11.3378 2173.00
11.403 2067.00
11.4682 2062.00
11.5334 2094.00
11.5986 1940.00
11.6638 1960.00
11.729 1976.00
11.7942 1910.00
11.8594 2043.00
11.9246 1969.00
11.9898 1888.00
12.055 1886.00
12.1202 1844.00
12.1854 1861.00
12.2506 1921.00
12.3158 1784.00
12.381 1837.00
12.4462 1868.00
12.5114 1826.00
12.5766 1852.00
12.6418 1753.00
12.707 1714.00
12.7722 1710.00
12.8374 1680.00
12.9026 1698.00
12.9678 1664.00
13.033 1672.00
13.0982 1644.00
13.1634 1621.00
13.2286 1679.00
13.2938 1629.00
13.359 1656.00
13.4242 1595.00
13.4894 1528.00
13.5546 1543.00
13.6198 1573.00
13.685 1591.00
13.7502 1497.00
13.8154 1527.00
13.8805 1437.00
13.9457 1479.00
14.0109 1479.00
14.0761 1533.00
14.1413 1503.00
14.2065 1498.00
14.2717 1524.00
14.3369 1479.00
14.4021 1473.00
14.4673 1458.00
14.5325 1440.00
14.5977 1337.00
14.6629 1399.00
14.7281 1382.00
14.7933 1383.00
14.8585 1351.00
14.9237 1336.00
14.9889 1412.00
15.0541 1428.00
15.1193 1425.00
15.1845 1394.00
15.2497 1370.00
15.3149 1396.00
15.3801 1343.00
15.4453 1406.00
15.5105 1380.00
15.5757 1382.00
15.6409 1336.00
15.7061 1296.00
15.7713 1275.00
15.8365 1309.00
15.9017 1342.00
15.9669 1269.00
16.0321 1272.00
16.0973 1274.00
16.1625 1260.00
16.2277 1256.00
16.2929 1253.00
16.3581 1302.00
16.4233 1242.00
16.4885 1251.00
16.5537 1275.00
16.6189 1230.00
16.6841 1242.00
16.7493 1156.00
16.8145 1251.00
16.8797 1223.00
16.9449 1228.00
17.0101 1208.00
17.0753 1182.00
17.1405 1233.00
17.2057 1192.00
17.2709 1166.00
17.3361 1136.00
17.4013 1193.00
17.4665 1123.00
17.5317 1198.00
17.5969 1172.00
17.6621 1120.00
17.7273 1114.00
17.7925 1131.00
17.8577 1083.00
17.9229 1155.00
17.9881 1082.00
18.0533 1162.00
18.1185 1153.00
18.1837 1176.00
18.2489 1167.00
18.3141 1095.00
18.3793 1134.00
18.4445 1227.00
18.5097 1117.00
18.5749 1088.00
18.6401 1102.00
18.7052 1090.00
18.7704 1073.00
18.8356 1125.00
18.9008 1082.00
18.966 1059.00
19.0312 1048.00
19.0964 1018.00
19.1616 1001.00
19.2268 1015.00
19.292 1001.00
19.3572 1048.00
19.4224 999.00
19.4876 1028.00
19.5528 948.00
19.618 1043.00
19.6832 974.00
19.7484 996.00
19.8136 976.00
19.8788 994.00
19.944 927.00
20.0092 959.00
20.0744 939.00
20.1396 1042.00
20.2048 1017.00
20.27 975.00
20.3352 990.00
20.4004 935.00
20.4656 922.00
20.5308 961.00
20.596 977.00
20.6612 894.00
20.7264 882.00
20.7916 883.00
20.8568 906.00
20.922 922.00
20.9872 920.00
21.0524 924.00
21.1176 926.00
21.1828 888.00
21.248 897.00
21.3132 869.00
21.3784 925.00
21.4436 838.00
21.5088 880.00
21.574 926.00
21.6392 890.00
21.7044 896.00
21.7696 817.00
21.8348 933.00
21.9 920.00
21.9652 871.00
22.0304 854.00
22.0956 882.00
22.1608 898.00
22.226 897.00
22.2912 988.00
22.3564 1001.00
22.4216 1181.00
22.4868 1206.00
22.552 1002.00
22.6172 854.00
22.6824 848.00
22.7476 870.00
22.8128 793.00
22.878 875.00
22.9432 813.00
23.0084 845.00
23.0736 781.00
23.1388 841.00
23.204 781.00
23.2692 738.00
23.3344 806.00
23.3996 775.00
23.4647 804.00
23.5299 790.00
23.5951 804.00
23.6603 799.00
23.7255 879.00
23.7907 806.00
23.8559 825.00
23.9211 814.00
23.9863 837.00
24.0515 822.00
24.1167 831.00
24.1819 757.00
24.2471 742.00
24.3123 760.00
24.3775 796.00
24.4427 798.00
24.5079 789.00
24.5731 807.00
24.6383 772.00
24.7035 740.00
24.7687 800.00
24.8339 734.00
24.8991 741.00
24.9643 685.00
25.0295 714.00
25.0947 752.00
25.1599 785.00
25.2251 771.00
25.2903 747.00
25.3555 729.00
25.4207 748.00
25.4859 742.00
25.5511 776.00
25.6163 705.00
25.6815 709.00
25.7467 746.00
25.8119 686.00
25.8771 739.00
25.9423 687.00
26.0075 690.00
26.0727 704.00
26.1379 687.00
26.2031 764.00
26.2683 742.00
26.3335 791.00
26.3987 790.00
26.4639 817.00
26.5291 764.00
26.5943 687.00
26.6595 729.00
26.7247 716.00
26.7899 710.00
26.8551 726.00
26.9203 725.00
26.9855 674.00
27.0507 703.00
27.1159 741.00
27.1811 713.00
27.2463 689.00
27.3115 723.00
27.3767 694.00
27.4419 666.00
27.5071 685.00
27.5723 728.00
27.6375 715.00
27.7027 738.00
27.7679 821.00
27.8331 870.00
27.8983 784.00
27.9635 773.00
28.0287 833.00
28.0939 959.00
28.1591 1250.00
28.2243 1309.00
28.2894 1076.00
28.3546 846.00
28.4198 723.00
28.485 725.00
28.5502 755.00
28.6154 715.00
28.6806 785.00
28.7458 790.00
28.811 780.00
28.8762 720.00
28.9414 693.00
29.0066 643.00
29.0718 688.00
29.137 645.00
29.2022 642.00
29.2674 608.00
29.3326 632.00
29.3978 648.00
29.463 647.00
29.5282 597.00
29.5934 608.00
29.6586 629.00
29.7238 624.00
29.789 610.00
29.8542 575.00
29.9194 543.00
29.9846 636.00
30.0498 602.00
30.115 689.00
30.1802 681.00
30.2454 658.00
30.3106 669.00
30.3758 659.00
30.441 599.00
30.5062 606.00
30.5714 648.00
30.6366 628.00
30.7018 641.00
30.767 571.00
30.8322 599.00
30.8974 622.00
30.9626 582.00
31.0278 595.00
31.093 565.00
31.1582 627.00
31.2234 627.00
31.2886 598.00
31.3538 695.00
31.419 743.00
31.4842 737.00
31.5494 822.00
31.6146 758.00
31.6798 683.00
31.745 607.00
31.8102 570.00
31.8754 617.00
31.9406 573.00
32.0058 589.00
32.071 588.00
32.1362 612.00
32.2014 572.00
32.2666 572.00
32.3318 546.00
32.397 545.00
32.4622 601.00
32.5274 640.00
32.5926 573.00
32.6578 594.00
32.723 570.00
32.7882 578.00
32.8534 560.00
32.9186 540.00
32.9838 570.00
33.0489 521.00
33.1141 536.00
33.1793 535.00
33.2445 549.00
33.3097 496.00
33.3749 568.00
33.4401 564.00
33.5053 550.00
33.5705 570.00
33.6357 535.00
33.7009 607.00
33.7661 580.00
33.8313 588.00
33.8965 522.00
33.9617 539.00
34.0269 572.00
34.0921 578.00
34.1573 557.00
34.2225 620.00
34.2877 520.00
34.3529 522.00
34.4181 576.00
34.4833 581.00
34.5485 533.00
34.6137 518.00
34.6789 498.00
34.7441 540.00
34.8093 549.00
34.8745 517.00
34.9397 509.00
35.0049 489.00
35.0701 492.00
35.1353 506.00
35.2005 486.00
35.2657 536.00
35.3309 518.00
35.3961 569.00
35.4613 547.00
35.5265 505.00
35.5917 500.00
35.6569 507.00
35.7221 502.00
35.7873 459.00
35.8525 496.00
35.9177 504.00
35.9829 458.00
36.0481 511.00
36.1133 453.00
36.1785 458.00
36.2437 502.00
36.3089 519.00
36.3741 581.00
36.4393 589.00
36.5045 586.00
36.5697 460.00
36.6349 490.00
36.7001 490.00
36.7653 468.00
36.8305 476.00
36.8957 514.00
36.9609 498.00
37.0261 453.00
37.0913 420.00
37.1565 418.00
37.2217 495.00
37.2869 459.00
37.3521 471.00
37.4173 440.00
37.4825 429.00
37.5477 443.00
37.6129 424.00
37.6781 438.00
37.7433 452.00
37.8085 481.00
37.8736 454.00
37.9388 399.00
38.004 459.00
38.0692 393.00
38.1344 409.00
38.1996 413.00
38.2648 430.00
38.33 422.00
38.3952 418.00
38.4604 436.00
38.5256 411.00
38.5908 428.00
38.656 450.00
38.7212 418.00
38.7864 419.00
38.8516 444.00
38.9168 416.00
38.982 381.00
39.0472 410.00
39.1124 384.00
39.1776 382.00
39.2428 460.00
39.308 422.00
39.3732 419.00
39.4384 369.00
39.5036 446.00
39.5688 389.00
39.634 409.00
39.6992 423.00
39.7644 368.00
39.8296 427.00
39.8948 412.00
39.96 397.00
40.0252 426.00
40.0904 422.00
40.1556 394.00
40.2208 362.00
40.286 379.00
40.3512 379.00
40.4164 380.00
40.4816 401.00
40.5468 375.00
40.612 403.00
40.6772 395.00
40.7424 383.00
40.8076 430.00
40.8728 428.00
40.938 420.00
41.0032 419.00
41.0684 379.00
41.1336 373.00
41.1988 387.00
41.264 364.00
41.3292 436.00
41.3944 393.00
41.4596 406.00
41.5248 395.00
41.59 371.00
41.6552 396.00
41.7204 343.00
41.7856 346.00
41.8508 407.00
41.916 332.00
41.9812 369.00
42.0464 372.00
42.1116 389.00
42.1768 334.00
42.242 360.00
42.3072 380.00
42.3724 370.00
42.4376 373.00
42.5028 348.00
42.568 384.00
42.6332 380.00
42.6983 360.00
42.7635 390.00
42.8287 321.00
42.8939 342.00
42.9591 351.00
43.0243 373.00
43.0895 379.00
43.1547 345.00
43.2199 334.00
43.2851 363.00
43.3503 343.00
43.4155 328.00
43.4807 363.00
43.5459 361.00
43.6111 348.00
43.6763 393.00
43.7415 342.00
43.8067 322.00
43.8719 369.00
43.9371 380.00
44.0023 334.00
44.0675 358.00
44.1327 314.00
44.1979 357.00
44.2631 366.00
44.3283 387.00
44.3935 353.00
44.4587 374.00
44.5239 338.00
44.5891 339.00
44.6543 370.00
44.7195 331.00
44.7847 381.00
44.8499 358.00
44.9151 382.00
44.9803 374.00
45.0455 387.00
45.1107 350.00
45.1759 379.00
45.2411 307.00
45.3063 352.00
45.3715 319.00
45.4367 332.00
45.5019 334.00
45.5671 359.00
45.6323 358.00
45.6975 309.00
45.7627 358.00
45.8279 377.00
45.8931 357.00
45.9583 390.00
46.0235 418.00
46.0887 414.00
46.1539 379.00
46.2191 352.00
46.2843 335.00
46.3495 326.00
46.4147 371.00
46.4799 371.00
46.5451 311.00
46.6103 358.00
46.6755 348.00
46.7407 347.00
46.8059 329.00
46.8711 336.00
46.9363 314.00
47.0015 339.00
47.0667 371.00
47.1319 357.00
47.1971 332.00
47.2623 348.00
47.3275 339.00
47.3927 309.00
47.4579 327.00
47.523 330.00
47.5882 331.00
47.6534 330.00
47.7186 301.00
47.7838 308.00
47.849 332.00
47.9142 338.00
47.9794 350.00
48.0446 310.00
48.1098 369.00
48.175 329.00
48.2402 309.00
48.3054 328.00
48.3706 295.00
48.4358 342.00
48.501 318.00
48.5662 303.00
48.6314 331.00
48.6966 315.00
48.7618 332.00
48.827 293.00
48.8922 293.00
48.9574 342.00
49.0226 282.00
49.0878 315.00
49.153 315.00
49.2182 347.00
49.2834 326.00
49.3486 339.00
49.4138 342.00
49.479 379.00
49.5442 370.00
49.6094 313.00
49.6746 317.00
49.7398 303.00
49.805 326.00
49.8702 326.00
49.9354 309.00
50.0006 322.00
50.0658 301.00
50.131 311.00
50.1962 329.00
50.2614 371.00
50.3266 354.00
50.3918 333.00
50.457 335.00
50.5222 322.00
50.5874 332.00
50.6526 367.00
50.7178 342.00
50.783 374.00
50.8482 388.00
50.9134 357.00
50.9786 324.00
51.0438 330.00
51.109 340.00
51.1742 313.00
51.2394 286.00
51.3046 314.00
51.3698 311.00
51.435 284.00
51.5002 327.00
51.5654 332.00
51.6306 328.00
51.6958 316.00
51.761 293.00
51.8262 335.00
51.8914 269.00
51.9566 300.00
52.0218 305.00
52.087 298.00
52.1522 330.00
52.2174 296.00
52.2826 276.00
52.3477 302.00
52.4129 323.00
52.4781 287.00
52.5433 315.00
52.6085 265.00
52.6737 297.00
52.7389 282.00
52.8041 299.00
52.8693 297.00
52.9345 281.00
52.9997 280.00
53.0649 286.00
53.1301 279.00
53.1953 274.00
53.2605 267.00
53.3257 278.00
53.3909 300.00
53.4561 272.00
53.5213 268.00
53.5865 276.00
53.6517 294.00
53.7169 260.00
53.7821 265.00
53.8473 296.00
53.9125 266.00
53.9777 290.00
54.0429 295.00
54.1081 285.00
54.1733 305.00
54.2385 282.00
54.3037 287.00
54.3689 310.00
54.4341 326.00
54.4993 301.00
54.5645 300.00
54.6297 293.00
54.6949 285.00
54.7601 293.00
54.8253 286.00
54.8905 315.00
54.9557 340.00
55.0209 302.00
55.0861 292.00
55.1513 341.00
55.2165 297.00
55.2817 341.00
55.3469 312.00
55.4121 319.00
55.4773 341.00
55.5425 315.00
55.6077 309.00
55.6729 343.00
55.7381 302.00
55.8033 293.00
55.8685 288.00
55.9337 266.00
55.9989 295.00
56.0641 277.00
56.1293 333.00
56.1945 302.00
56.2597 329.00
56.3249 306.00
56.3901 256.00
56.4553 279.00
56.5205 257.00
56.5857 243.00
56.6509 249.00
56.7161 276.00
56.7813 251.00
56.8465 266.00
56.9117 259.00
56.9769 286.00
57.042 243.00
57.1073 263.00
57.1724 282.00
57.2376 282.00
57.3028 273.00
57.368 298.00
57.4332 263.00
57.4984 274.00
57.5636 276.00
57.6288 280.00
57.694 296.00
57.7592 261.00
57.8244 262.00
57.8896 231.00
57.9548 243.00
58.02 239.00
58.0852 228.00
58.1504 262.00
58.2156 242.00
58.2808 288.00
58.346 291.00
58.4112 275.00
58.4764 274.00
58.5416 261.00
58.6068 287.00
58.672 277.00
58.7372 284.00
58.8024 226.00
58.8676 220.00
58.9328 217.00
58.998 239.00
59.0632 256.00
59.1284 206.00
59.1936 250.00
59.2588 260.00
59.324 238.00
59.3892 218.00
59.4544 259.00
59.5196 203.00
59.5848 234.00
59.65 287.00
59.7152 259.00
59.7804 256.00
59.8456 261.00
59.9108 269.00
59.976 277.00
60.0412 246.00
60.1064 270.00
60.1716 256.00
60.2368 249.00
60.302 256.00
60.3672 233.00
60.4324 245.00
60.4976 272.00
60.5628 226.00
60.628 249.00
60.6932 223.00
60.7584 220.00
60.8236 219.00
60.8888 274.00
60.954 257.00
61.0192 239.00
61.0844 229.00
61.1496 242.00
61.2148 261.00
61.28 231.00
61.3452 219.00
61.4104 230.00
61.4756 277.00
61.5408 249.00
61.606 232.00
61.6712 257.00
61.7364 241.00
61.8016 212.00
61.8667 247.00
61.932 257.00
61.9971 232.00
62.0623 269.00
62.1275 260.00
62.1927 227.00
62.2579 244.00
62.3231 245.00
62.3883 227.00
62.4535 242.00
62.5187 221.00
62.5839 231.00
62.6491 230.00
62.7143 241.00
62.7795 233.00
62.8447 213.00
62.9099 237.00
62.9751 217.00
63.0403 232.00
63.1055 223.00
63.1707 232.00
63.2359 235.00
63.3011 238.00
63.3663 240.00
63.4315 250.00
63.4967 238.00
63.5619 225.00
63.6271 224.00
63.6923 215.00
63.7575 233.00
63.8227 249.00
63.8879 238.00
63.9531 247.00
64.0183 241.00
64.0835 237.00
64.1487 204.00
64.2139 198.00
64.2791 196.00
64.3443 223.00
64.4095 238.00
64.4747 240.00
64.5399 221.00
64.6051 223.00
64.6703 228.00
64.7355 242.00
64.8007 249.00
64.8659 260.00
64.9311 220.00
64.9963 226.00
65.0615 214.00
65.1267 211.00
65.1919 240.00
65.2571 216.00
65.3223 187.00
65.3875 234.00
65.4527 198.00
65.5179 207.00
65.5831 201.00
65.6483 210.00
65.7135 257.00
65.7787 209.00
65.8439 246.00
65.9091 227.00
65.9743 270.00
66.0395 225.00
66.1047 246.00
66.1699 200.00
66.2351 224.00
66.3003 218.00
66.3655 223.00
66.4307 235.00
66.4959 243.00
66.561 203.00
66.6263 182.00
66.6915 226.00
66.7566 208.00
66.8218 208.00
66.887 217.00
66.9522 211.00
67.0174 209.00
67.0826 211.00
67.1478 191.00
67.213 218.00
67.2782 216.00
67.3434 215.00
67.4086 216.00
67.4738 217.00
67.539 196.00
67.6042 207.00
67.6694 213.00
67.7346 229.00
67.7998 196.00
67.865 210.00
67.9302 230.00
67.9954 241.00
68.0606 222.00
68.1258 189.00
68.191 186.00
68.2562 211.00
68.3214 196.00
68.3866 205.00
68.4518 205.00
68.517 211.00
68.5822 201.00
68.6474 208.00
68.7126 206.00
68.7778 206.00
68.843 211.00
68.9082 212.00
68.9734 199.00
69.0386 225.00
69.1038 210.00
69.169 232.00
69.2342 195.00
69.2994 211.00
69.3646 223.00
69.4298 236.00
69.495 214.00
69.5602 204.00
69.6254 202.00
69.6906 209.00
69.7558 203.00
69.821 200.00
69.8862 199.00
69.9514 225.00
70.0166 209.00
70.0818 227.00
70.147 223.00
70.2122 208.00
70.2774 224.00
70.3426 258.00
70.4078 203.00
70.473 202.00
70.5382 219.00
70.6034 236.00
70.6686 215.00
70.7338 218.00
70.799 196.00
70.8642 257.00
70.9294 214.00
70.9946 233.00
71.0598 249.00
71.125 225.00
71.1902 214.00
71.2554 205.00
71.3205 198.00
71.3858 221.00
71.451 200.00
71.5162 213.00
71.5813 224.00
71.6465 234.00
71.7117 237.00
71.7769 198.00
71.8421 191.00
71.9073 204.00
71.9725 222.00
72.0377 219.00
72.1029 209.00
72.1681 228.00
72.2333 209.00
72.2985 236.00
72.3637 220.00
72.4289 226.00
72.4941 242.00
72.5593 205.00
72.6245 210.00
72.6897 239.00
72.7549 195.00
72.8201 221.00
72.8853 221.00
72.9505 225.00
73.0157 198.00
73.0809 231.00
73.1461 213.00
73.2113 231.00
73.2765 221.00
73.3417 216.00
73.4069 228.00
73.4721 193.00
73.5373 236.00
73.6025 235.00
73.6677 233.00
73.7329 229.00
73.7981 200.00
73.8633 213.00
73.9285 229.00
73.9937 198.00
74.0589 224.00
74.1241 225.00
74.1893 215.00
74.2545 232.00
74.3197 240.00
74.3849 221.00
74.4501 237.00
74.5153 213.00
74.5805 225.00
74.6457 216.00
74.7109 208.00
74.7761 225.00
74.8413 224.00
74.9065 212.00
74.9717 241.00
75.0369 242.00
75.1021 235.00
75.1673 241.00
75.2325 208.00
75.2977 214.00
75.3629 226.00
75.4281 228.00
75.4933 215.00
75.5585 203.00
75.6237 234.00
75.6889 221.00
75.7541 215.00
75.8193 270.00
75.8845 213.00
75.9497 223.00
76.0149 244.00
76.0801 209.00
76.1452 209.00
76.2104 230.00
76.2756 206.00
76.3409 240.00
76.406 202.00
76.4712 206.00
76.5364 214.00
76.6016 263.00
76.6668 216.00
76.732 215.00
76.7972 212.00
76.8624 263.00
76.9276 233.00
76.9928 236.00
77.058 233.00
77.1232 248.00
77.1884 215.00
77.2536 239.00
77.3188 225.00
77.384 245.00
77.4492 236.00
77.5144 208.00
77.5796 259.00
77.6448 244.00
77.71 207.00
77.7752 236.00
77.8404 273.00
77.9056 257.00
77.9708 235.00
78.036 250.00
78.1012 259.00
78.1664 228.00
78.2316 246.00
78.2968 233.00
78.362 246.00
78.4272 221.00
78.4924 231.00
78.5576 265.00
78.6228 224.00
78.688 233.00
78.7532 250.00
78.8184 251.00
78.8836 267.00
78.9488 206.00
79.014 246.00
79.0792 201.00
79.1444 246.00
79.2096 228.00
79.2748 242.00
79.34 215.00
79.4052 260.00
79.4704 240.00
79.5356 243.00
79.6008 248.00
79.666 251.00
79.7312 219.00
79.7964 236.00
79.8616 226.00
79.9268 272.00
79.992 240.00
80.0572 230.00
80.1224 204.00
80.1876 238.00
80.2528 269.00
80.318 238.00
80.3832 226.00
80.4484 223.00
80.5136 247.00
80.5788 230.00
80.644 272.00
80.7092 280.00
80.7744 236.00
80.8396 223.00
80.9048 268.00
80.9699 232.00
81.0351 263.00
81.1003 265.00
81.1655 243.00
81.2307 244.00
81.2959 262.00
81.3611 258.00
81.4263 245.00
81.4915 257.00
81.5567 257.00
81.6219 220.00
81.6871 246.00
81.7523 243.00
81.8175 276.00
81.8827 249.00
81.9479 261.00
82.0131 247.00
82.0783 238.00
82.1435 241.00
82.2087 235.00
82.2739 243.00
82.3391 273.00
82.4043 211.00
82.4695 261.00
82.5347 221.00
82.5999 279.00
82.6651 221.00
82.7303 226.00
82.7955 244.00
82.8607 226.00
82.9259 232.00
82.9911 237.00
83.0563 249.00
83.1215 226.00
83.1867 246.00
83.2519 228.00
83.3171 238.00
83.3823 266.00
83.4475 220.00
83.5127 228.00
83.5779 228.00
83.6431 209.00
83.7083 218.00
83.7735 211.00
83.8387 228.00
83.9039 218.00
83.9691 217.00
84.0343 231.00
84.0995 228.00
84.1647 215.00
84.2299 236.00
84.2951 269.00
84.3603 268.00
84.4255 232.00
84.4907 201.00
84.5559 244.00
84.6211 219.00
84.6863 225.00
84.7515 256.00
84.8167 267.00
84.8819 198.00
84.9471 238.00
85.0123 219.00
85.0775 258.00
85.1427 215.00
85.2079 216.00
85.2731 245.00
85.3383 244.00
85.4035 233.00
85.4687 234.00
85.5339 237.00
85.5991 229.00
85.6643 220.00
85.7295 226.00
85.7946 196.00
85.8598 247.00
85.925 221.00
85.9903 223.00
86.0554 218.00
86.1206 222.00
86.1858 214.00
86.251 217.00
86.3162 226.00
86.3814 235.00
86.4466 210.00
86.5118 256.00
86.577 242.00
86.6422 218.00
86.7074 239.00
86.7726 224.00
86.8378 224.00
86.903 197.00
86.9682 200.00
87.0334 225.00
87.0986 189.00
87.1638 224.00
87.229 191.00
87.2942 233.00
87.3594 246.00
87.4246 203.00
87.4898 219.00
87.555 209.00
87.6202 190.00
87.6854 224.00
87.7506 204.00
87.8158 191.00
87.881 208.00
87.9462 224.00
88.0114 208.00
88.0766 198.00
88.1418 236.00
88.207 205.00
88.2722 202.00
88.3374 212.00
88.4026 215.00
88.4678 230.00
88.533 188.00
88.5982 192.00
88.6634 216.00
88.7286 228.00
88.7938 209.00
88.859 200.00
88.9242 212.00
88.9894 211.00
89.0546 230.00
89.1198 238.00
89.185 249.00
89.2502 219.00
89.3154 221.00
89.3806 213.00
89.4458 237.00
89.511 228.00
89.5762 202.00
89.6414 207.00
89.7066 201.00
89.7718 207.00
89.837 212.00
89.9022 208.00
89.9674 197.00
90.0326 214.00
90.0978 202.00
90.163 201.00
90.2282 225.00
90.2934 201.00
90.3586 233.00
90.4238 224.00
90.489 209.00
90.5542 220.00
90.6193 191.00
90.6845 205.00
90.7497 196.00
90.8149 190.00
90.8801 193.00
90.9453 210.00
91.0105 241.00
91.0757 202.00
91.1409 200.00
91.2061 228.00
91.2713 194.00
91.3365 205.00
91.4017 212.00
91.4669 186.00
91.5321 184.00
91.5973 217.00
91.6625 205.00
91.7277 213.00
91.7929 197.00
91.8581 209.00
91.9233 214.00
91.9885 238.00
92.0537 227.00
92.1189 196.00
92.1841 230.00
92.2493 216.00
92.3145 189.00
92.3797 202.00
92.4449 201.00
92.5101 213.00
92.5753 208.00
92.6405 207.00
92.7057 204.00
92.7709 221.00
92.8361 198.00
92.9013 192.00
92.9665 210.00
93.0317 205.00
93.0969 196.00
93.1621 210.00
93.2273 183.00
93.2925 218.00
93.3577 195.00
93.4229 189.00
93.4881 170.00
93.5533 212.00
93.6185 195.00
93.6837 220.00
93.7489 192.00
93.8141 178.00
93.8793 189.00
93.9445 181.00
94.0097 212.00
94.0749 167.00
94.1401 197.00
94.2053 207.00
94.2705 201.00
94.3357 205.00
94.4009 197.00
94.4661 205.00
94.5313 205.00
94.5965 212.00
94.6617 203.00
94.7269 215.00
94.7921 158.00
94.8573 180.00
94.9225 183.00
94.9877 210.00
95.0529 192.00
95.1181 222.00
95.1833 200.00
95.2485 222.00
95.3137 223.00
95.3789 218.00
95.444 170.00
95.5092 213.00
95.5744 235.00
95.6396 213.00
95.7048 212.00
95.77 205.00
95.8352 198.00
95.9004 207.00
95.9656 226.00
96.0308 188.00
96.096 193.00
96.1612 210.00
96.2264 186.00
96.2916 204.00
96.3568 187.00
96.422 214.00
96.4872 187.00
96.5524 199.00
96.6176 204.00
96.6828 206.00
96.748 196.00
96.8132 200.00
96.8784 222.00
96.9436 206.00
97.0088 188.00
97.074 190.00
97.1392 205.00
97.2044 191.00
97.2696 214.00
97.3348 191.00
97.4 173.00
97.4652 172.00
97.5304 207.00
97.5956 188.00
97.6608 185.00
97.726 190.00
97.7912 206.00
97.8564 205.00
97.9216 193.00
97.9868 197.00
98.052 194.00
98.1172 192.00
98.1824 206.00
98.2476 193.00
98.3128 180.00
98.378 201.00
98.4432 214.00
98.5084 201.00
98.5736 208.00
98.6388 209.00
98.704 218.00
98.7692 202.00
98.8344 215.00
98.8996 232.00
98.9648 199.00
99.03 180.00
99.0952 160.00
99.1604 181.00
99.2256 223.00
99.2908 197.00
99.356 208.00
99.4212 185.00
99.4864 226.00
99.5516 219.00
99.6168 177.00
99.682 197.00
99.7472 208.00
99.8124 202.00
99.8776 197.00
99.9428 191.00
100.008 191.00
100.073 178.00
100.095 191.00