File: data/xrd_creation/results/PG_2049-1.xy
9.903433 2357.00
9.968632 2377.00
10.0338 2346.00
10.099 2389.00
10.1642 2293.00
10.2294 2237.00
10.2946 2230.00
10.3598 2232.00
10.425 2264.00
10.4902 2169.00
10.5554 2181.00
10.6206 2233.00
10.6858 2280.00
10.751 2128.00
10.8162 2138.00
10.8814 2155.00
10.9466 2102.00
11.0118 2045.00
11.077 2169.00
11.1422 2036.00
11.2074 2017.00
11.2726 2049.00
11.3378 2036.00
11.403 1961.00
11.4682 1880.00
11.5334 1905.00
11.5986 1993.00
11.6638 1963.00
11.729 1872.00
11.7942 1894.00
11.8594 1865.00
11.9246 1888.00
11.9898 1874.00
12.055 1864.00
12.1202 1757.00
12.1854 1791.00
12.2506 1769.00
12.3158 1715.00
12.381 1775.00
12.4462 1637.00
12.5114 1743.00
12.5766 1718.00
12.6418 1707.00
12.707 1653.00
12.7722 1674.00
12.8374 1666.00
12.9026 1587.00
12.9678 1606.00
13.033 1523.00
13.0982 1601.00
13.1634 1573.00
13.2286 1574.00
13.2938 1634.00
13.359 1564.00
13.4242 1503.00
13.4894 1477.00
13.5546 1540.00
13.6198 1524.00
13.685 1520.00
13.7502 1480.00
13.8154 1418.00
13.8805 1433.00
13.9457 1563.00
14.0109 1449.00
14.0761 1524.00
14.1413 1505.00
14.2065 1477.00
14.2717 1392.00
14.3369 1421.00
14.4021 1392.00
14.4673 1355.00
14.5325 1384.00
14.5977 1377.00
14.6629 1462.00
14.7281 1308.00
14.7933 1399.00
14.8585 1348.00
14.9237 1295.00
14.9889 1356.00
15.0541 1418.00
15.1193 1320.00
15.1845 1291.00
15.2497 1352.00
15.3149 1337.00
15.3801 1329.00
15.4453 1337.00
15.5105 1358.00
15.5757 1303.00
15.6409 1271.00
15.7061 1312.00
15.7713 1307.00
15.8365 1316.00
15.9017 1263.00
15.9669 1281.00
16.0321 1228.00
16.0973 1332.00
16.1625 1330.00
16.2277 1244.00
16.2929 1252.00
16.3581 1255.00
16.4233 1257.00
16.4885 1231.00
16.5537 1272.00
16.6189 1272.00
16.6841 1228.00
16.7493 1242.00
16.8145 1247.00
16.8797 1201.00
16.9449 1259.00
17.0101 1199.00
17.0753 1176.00
17.1405 1236.00
17.2057 1181.00
17.2709 1191.00
17.3361 1228.00
17.4013 1198.00
17.4665 1228.00
17.5317 1309.00
17.5969 1239.00
17.6621 1395.00
17.7273 1491.00
17.7925 1280.00
17.8577 1205.00
17.9229 1203.00
17.9881 1128.00
18.0533 1097.00
18.1185 1213.00
18.1837 1057.00
18.2489 1063.00
18.3141 1107.00
18.3793 1139.00
18.4445 1125.00
18.5097 1043.00
18.5749 997.00
18.6401 1039.00
18.7052 1039.00
18.7704 1048.00
18.8356 1090.00
18.9008 1057.00
18.966 1076.00
19.0312 1079.00
19.0964 1078.00
19.1616 1009.00
19.2268 1078.00
19.292 1020.00
19.3572 1000.00
19.4224 956.00
19.4876 977.00
19.5528 1091.00
19.618 1074.00
19.6832 980.00
19.7484 982.00
19.8136 1080.00
19.8788 1006.00
19.944 1014.00
20.0092 1032.00
20.0744 983.00
20.1396 1024.00
20.2048 949.00
20.27 973.00
20.3352 953.00
20.4004 955.00
20.4656 963.00
20.5308 970.00
20.596 991.00
20.6612 916.00
20.7264 997.00
20.7916 966.00
20.8568 1019.00
20.922 978.00
20.9872 944.00
21.0524 992.00
21.1176 967.00
21.1828 1002.00
21.248 931.00
21.3132 941.00
21.3784 980.00
21.4436 954.00
21.5088 901.00
21.574 961.00
21.6392 908.00
21.7044 900.00
21.7696 955.00
21.8348 914.00
21.9 962.00
21.9652 911.00
22.0304 872.00
22.0956 927.00
22.1608 905.00
22.226 908.00
22.2912 898.00
22.3564 938.00
22.4216 957.00
22.4868 936.00
22.552 938.00
22.6172 968.00
22.6824 1005.00
22.7476 1050.00
22.8128 1126.00
22.878 1172.00
22.9432 1451.00
23.0084 1681.00
23.0736 2178.00
23.1388 2724.00
23.204 3571.00
23.2692 4940.00
23.3344 6771.00
23.3996 9138.00
23.4647 8858.00
23.5299 5516.00
23.5951 3662.00
23.6603 3690.00
23.7255 4538.00
23.7907 5973.00
23.8559 8165.00
23.9211 9465.00
23.9863 7484.00
24.0515 5050.00
24.1167 4341.00
24.1819 4594.00
24.2471 3549.00
24.3123 2980.00
24.3775 3350.00
24.4427 4293.00
24.5079 5734.00
24.5731 7386.00
24.6383 9472.00
24.7035 8188.00
24.7687 4333.00
24.8339 2124.00
24.8991 1357.00
24.9643 1226.00
25.0295 1093.00
25.0947 1051.00
25.1599 1004.00
25.2251 948.00
25.2903 946.00
25.3555 877.00
25.4207 871.00
25.4859 871.00
25.5511 912.00
25.6163 922.00
25.6815 914.00
25.7467 864.00
25.8119 910.00
25.8771 817.00
25.9423 870.00
26.0075 840.00
26.0727 848.00
26.1379 847.00
26.2031 785.00
26.2683 826.00
26.3335 846.00
26.3987 927.00
26.4639 907.00
26.5291 927.00
26.5943 1040.00
26.6595 1185.00
26.7247 1464.00
26.7899 1728.00
26.8551 1987.00
26.9203 2061.00
26.9855 1646.00
27.0507 1309.00
27.1159 1094.00
27.1811 971.00
27.2463 874.00
27.3115 771.00
27.3767 755.00
27.4419 757.00
27.5071 720.00
27.5723 678.00
27.6375 724.00
27.7027 716.00
27.7679 772.00
27.8331 682.00
27.8983 668.00
27.9635 701.00
28.0287 780.00
28.0939 710.00
28.1591 770.00
28.2243 755.00
28.2894 766.00
28.3546 790.00
28.4198 758.00
28.485 849.00
28.5502 997.00
28.6154 1136.00
28.6806 1272.00
28.7458 1328.00
28.811 1630.00
28.8762 1827.00
28.9414 1937.00
29.0066 2069.00
29.0718 2120.00
29.137 2218.00
29.2022 2292.00
29.2674 1994.00
29.3326 1475.00
29.3978 1149.00
29.463 883.00
29.5282 790.00
29.5934 810.00
29.6586 749.00
29.7238 707.00
29.789 788.00
29.8542 806.00
29.9194 809.00
29.9846 928.00
30.0498 897.00
30.115 717.00
30.1802 639.00
30.2454 642.00
30.3106 646.00
30.3758 637.00
30.441 641.00
30.5062 682.00
30.5714 693.00
30.6366 704.00
30.7018 819.00
30.767 912.00
30.8322 1135.00
30.8974 1617.00
30.9626 2245.00
31.0278 3076.00
31.093 2119.00
31.1582 1119.00
31.2234 661.00
31.2886 706.00
31.3538 595.00
31.419 613.00
31.4842 550.00
31.5494 570.00
31.6146 572.00
31.6798 590.00
31.745 526.00
31.8102 549.00
31.8754 539.00
31.9406 561.00
32.0058 582.00
32.071 539.00
32.1362 577.00
32.2014 522.00
32.2666 599.00
32.3318 552.00
32.397 556.00
32.4622 574.00
32.5274 600.00
32.5926 593.00
32.6578 614.00
32.723 620.00
32.7882 629.00
32.8534 638.00
32.9186 694.00
32.9838 762.00
33.0489 863.00
33.1141 980.00
33.1793 1208.00
33.2445 1645.00
33.3097 1949.00
33.3749 2181.00
33.4401 2709.00
33.5053 3458.00
33.5705 3855.00
33.6357 3491.00
33.7009 3003.00
33.7661 3134.00
33.8313 3672.00
33.8965 3829.00
33.9617 3527.00
34.0269 3029.00
34.0921 2877.00
34.1573 3307.00
34.2225 3890.00
34.2877 4855.00
34.3529 5611.00
34.4181 5931.00
34.4833 5249.00
34.5485 3675.00
34.6137 2393.00
34.6789 1765.00
34.7441 1559.00
34.8093 1275.00
34.8745 1065.00
34.9397 872.00
35.0049 700.00
35.0701 745.00
35.1353 677.00
35.2005 660.00
35.2657 729.00
35.3309 747.00
35.3961 780.00
35.4613 865.00
35.5265 1059.00
35.5917 1001.00
35.6569 1047.00
35.7221 1007.00
35.7873 1112.00
35.8525 1074.00
35.9177 1138.00
35.9829 981.00
36.0481 874.00
36.1133 797.00
36.1785 682.00
36.2437 673.00
36.3089 638.00
36.3741 549.00
36.4393 578.00
36.5045 545.00
36.5697 507.00
36.6349 525.00
36.7001 501.00
36.7653 473.00
36.8305 457.00
36.8957 473.00
36.9609 477.00
37.0261 447.00
37.0913 441.00
37.1565 463.00
37.2217 501.00
37.2869 445.00
37.3521 479.00
37.4173 503.00
37.4825 479.00
37.5477 501.00
37.6129 513.00
37.6781 429.00
37.7433 488.00
37.8085 473.00
37.8736 418.00
37.9388 427.00
38.004 464.00
38.0692 428.00
38.1344 393.00
38.1996 459.00
38.2648 460.00
38.33 500.00
38.3952 513.00
38.4604 564.00
38.5256 532.00
38.5908 531.00
38.656 631.00
38.7212 799.00
38.7864 686.00
38.8516 569.00
38.9168 453.00
38.982 463.00
39.0472 449.00
39.1124 440.00
39.1776 479.00
39.2428 444.00
39.308 462.00
39.3732 428.00
39.4384 440.00
39.5036 465.00
39.5688 468.00
39.634 430.00
39.6992 420.00
39.7644 442.00
39.8296 396.00
39.8948 435.00
39.96 448.00
40.0252 498.00
40.0904 510.00
40.1556 489.00
40.2208 419.00
40.286 424.00
40.3512 415.00
40.4164 398.00
40.4816 394.00
40.5468 403.00
40.612 472.00
40.6772 457.00
40.7424 468.00
40.8076 531.00
40.8728 620.00
40.938 633.00
41.0032 624.00
41.0684 551.00
41.1336 622.00
41.1988 608.00
41.264 642.00
41.3292 643.00
41.3944 653.00
41.4596 667.00
41.5248 804.00
41.59 906.00
41.6552 1129.00
41.7204 1334.00
41.7856 1345.00
41.8508 1382.00
41.916 1336.00
41.9812 1381.00
42.0464 1689.00
42.1116 1881.00
42.1768 2066.00
42.242 1868.00
42.3072 1385.00
42.3724 1053.00
42.4376 731.00
42.5028 580.00
42.568 523.00
42.6332 479.00
42.6983 398.00
42.7635 400.00
42.8287 407.00
42.8939 388.00
42.9591 458.00
43.0243 393.00
43.0895 424.00
43.1547 446.00
43.2199 524.00
43.2851 424.00
43.3503 420.00
43.4155 398.00
43.4807 404.00
43.5459 356.00
43.6111 432.00
43.6763 414.00
43.7415 405.00
43.8067 384.00
43.8719 402.00
43.9371 412.00
44.0023 396.00
44.0675 432.00
44.1327 387.00
44.1979 475.00
44.2631 511.00
44.3283 552.00
44.3935 607.00
44.4587 654.00
44.5239 786.00
44.5891 741.00
44.6543 687.00
44.7195 617.00
44.7847 626.00
44.8499 617.00
44.9151 678.00
44.9803 792.00
45.0455 766.00
45.1107 843.00
45.1759 811.00
45.2411 787.00
45.3063 741.00
45.3715 700.00
45.4367 671.00
45.5019 772.00
45.5671 705.00
45.6323 789.00
45.6975 739.00
45.7627 790.00
45.8279 802.00
45.8931 806.00
45.9583 882.00
46.0235 1020.00
46.0887 945.00
46.1539 979.00
46.2191 813.00
46.2843 819.00
46.3495 662.00
46.4147 643.00
46.4799 636.00
46.5451 642.00
46.6103 813.00
46.6755 1283.00
46.7407 1889.00
46.8059 1431.00
46.8711 1121.00
46.9363 673.00
47.0015 490.00
47.0667 444.00
47.1319 468.00
47.1971 537.00
47.2623 589.00
47.3275 745.00
47.3927 914.00
47.4579 1376.00
47.523 1572.00
47.5882 1464.00
47.6534 1118.00
47.7186 753.00
47.7838 594.00
47.849 525.00
47.9142 542.00
47.9794 506.00
48.0446 459.00
48.1098 499.00
48.175 427.00
48.2402 521.00
48.3054 540.00
48.3706 678.00
48.4358 992.00
48.501 1218.00
48.5662 1412.00
48.6314 1379.00
48.6966 1124.00
48.7618 872.00
48.827 684.00
48.8922 602.00
48.9574 513.00
49.0226 462.00
49.0878 547.00
49.153 515.00
49.2182 476.00
49.2834 459.00
49.3486 515.00
49.4138 497.00
49.479 461.00
49.5442 494.00
49.6094 492.00
49.6746 587.00
49.7398 628.00
49.805 663.00
49.8702 796.00
49.9354 1068.00
50.0006 1513.00
50.0658 2061.00
50.131 2995.00
50.1962 3550.00
50.2614 3040.00
50.3266 2506.00
50.3918 2048.00
50.457 1710.00
50.5222 1824.00
50.5874 1961.00
50.6526 1815.00
50.7178 1758.00
50.783 1643.00
50.8482 1577.00
50.9134 1728.00
50.9786 1825.00
51.0438 1682.00
51.109 1457.00
51.1742 1134.00
51.2394 954.00
51.3046 683.00
51.3698 632.00
51.435 517.00
51.5002 492.00
51.5654 418.00
51.6306 411.00
51.6958 370.00
51.761 374.00
51.8262 395.00
51.8914 366.00
51.9566 363.00
52.0218 366.00
52.087 347.00
52.1522 361.00
52.2174 344.00
52.2826 368.00
52.3477 369.00
52.4129 366.00
52.4781 406.00
52.5433 375.00
52.6085 388.00
52.6737 393.00
52.7389 333.00
52.8041 355.00
52.8693 371.00
52.9345 409.00
52.9997 399.00
53.0649 420.00
53.1301 429.00
53.1953 464.00
53.2605 538.00
53.3257 657.00
53.3909 605.00
53.4561 728.00
53.5213 803.00
53.5865 991.00
53.6517 1193.00
53.7169 1481.00
53.7821 1521.00
53.8473 1328.00
53.9125 1165.00
53.9777 1030.00
54.0429 933.00
54.1081 996.00
54.1733 1035.00
54.2385 1058.00
54.3037 1221.00
54.3689 1479.00
54.4341 1628.00
54.4993 1495.00
54.5645 1356.00
54.6297 1177.00
54.6949 1034.00
54.7601 1027.00
54.8253 1008.00
54.8905 1194.00
54.9557 1337.00
55.0209 1594.00
55.0861 1459.00
55.1513 1454.00
55.2165 1394.00
55.2817 1417.00
55.3469 1391.00
55.4121 1358.00
55.4773 1605.00
55.5425 1727.00
55.6077 1614.00
55.6729 1758.00
55.7381 1752.00
55.8033 1812.00
55.8685 1829.00
55.9337 2000.00
55.9989 2200.00
56.0641 2290.00
56.1293 2396.00
56.1945 2480.00
56.2597 2346.00
56.3249 2018.00
56.3901 1735.00
56.4553 1357.00
56.5205 1133.00
56.5857 962.00
56.6509 730.00
56.7161 597.00
56.7813 538.00
56.8465 432.00
56.9117 438.00
56.9769 408.00
57.042 399.00
57.1073 403.00
57.1724 380.00
57.2376 372.00
57.3028 348.00
57.368 386.00
57.4332 349.00
57.4984 396.00
57.5636 372.00
57.6288 354.00
57.694 401.00
57.7592 376.00
57.8244 402.00
57.8896 437.00
57.9548 404.00
58.02 447.00
58.0852 440.00
58.1504 419.00
58.2156 409.00
58.2808 423.00
58.346 510.00
58.4112 517.00
58.4764 506.00
58.5416 557.00
58.6068 637.00
58.672 664.00
58.7372 580.00
58.8024 565.00
58.8676 508.00
58.9328 504.00
58.998 599.00
59.0632 684.00
59.1284 599.00
59.1936 538.00
59.2588 573.00
59.324 535.00
59.3892 535.00
59.4544 614.00
59.5196 639.00
59.5848 624.00
59.65 607.00
59.7152 590.00
59.7804 566.00
59.8456 600.00
59.9108 655.00
59.976 725.00
60.0412 792.00
60.1064 886.00
60.1716 1007.00
60.2368 1053.00
60.302 1080.00
60.3672 1039.00
60.4324 1006.00
60.4976 1031.00
60.5628 1024.00
60.628 1145.00
60.6932 1077.00
60.7584 1026.00
60.8236 975.00
60.8888 905.00
60.954 833.00
61.0192 772.00
61.0844 847.00
61.1496 830.00
61.2148 954.00
61.28 982.00
61.3452 890.00
61.4104 959.00
61.4756 895.00
61.5408 900.00
61.606 932.00
61.6712 967.00
61.7364 1134.00
61.8016 1189.00
61.8667 1304.00
61.932 1291.00
61.9971 1298.00
62.0623 1347.00
62.1275 1223.00
62.1927 1211.00
62.2579 1107.00
62.3231 1191.00
62.3883 1234.00
62.4535 1389.00
62.5187 1505.00
62.5839 1344.00
62.6491 1194.00
62.7143 1023.00
62.7795 884.00
62.8447 776.00
62.9099 757.00
62.9751 781.00
63.0403 747.00
63.1055 720.00
63.1707 659.00
63.2359 674.00
63.3011 721.00
63.3663 706.00
63.4315 740.00
63.4967 774.00
63.5619 755.00
63.6271 675.00
63.6923 606.00
63.7575 521.00
63.8227 471.00
63.8879 392.00
63.9531 394.00
64.0183 397.00
64.0835 405.00
64.1487 485.00
64.2139 548.00
64.2791 507.00
64.3443 409.00
64.4095 480.00
64.4747 320.00
64.5399 324.00
64.6051 302.00
64.6703 315.00
64.7355 294.00
64.8007 314.00
64.8659 307.00
64.9311 262.00
64.9963 278.00
65.0615 284.00
65.1267 281.00
65.1919 305.00
65.2571 304.00
65.3223 280.00
65.3875 328.00
65.4527 329.00
65.5179 314.00
65.5831 304.00
65.6483 287.00
65.7135 286.00
65.7787 287.00
65.8439 305.00
65.9091 280.00
65.9743 316.00
66.0395 318.00
66.1047 333.00
66.1699 367.00
66.2351 404.00
66.3003 417.00
66.3655 441.00
66.4307 421.00
66.4959 433.00
66.561 413.00
66.6263 444.00
66.6915 451.00
66.7566 477.00
66.8218 518.00
66.887 520.00
66.9522 445.00
67.0174 478.00
67.0826 465.00
67.1478 481.00
67.213 488.00
67.2782 532.00
67.3434 548.00
67.4086 604.00
67.4738 584.00
67.539 563.00
67.6042 549.00
67.6694 590.00
67.7346 568.00
67.7998 601.00
67.865 647.00
67.9302 640.00
67.9954 564.00
68.0606 559.00
68.1258 455.00
68.191 501.00
68.2562 424.00
68.3214 389.00
68.3866 402.00
68.4518 398.00
68.517 393.00
68.5822 367.00
68.6474 376.00
68.7126 337.00
68.7778 353.00
68.843 365.00
68.9082 348.00
68.9734 341.00
69.0386 367.00
69.1038 363.00
69.169 394.00
69.2342 357.00
69.2994 379.00
69.3646 419.00
69.4298 396.00
69.495 375.00
69.5602 421.00
69.6254 425.00
69.6906 417.00
69.7558 472.00
69.821 502.00
69.8862 614.00
69.9514 805.00
70.0166 664.00
70.0818 648.00
70.147 648.00
70.2122 539.00
70.2774 531.00
70.3426 466.00
70.4078 453.00
70.473 478.00
70.5382 475.00
70.6034 527.00
70.6686 550.00
70.7338 578.00
70.799 582.00
70.8642 560.00
70.9294 530.00
70.9946 510.00
71.0598 542.00
71.125 463.00
71.1902 517.00
71.2554 491.00
71.3205 498.00
71.3858 491.00
71.451 530.00
71.5162 559.00
71.5813 593.00
71.6465 581.00
71.7117 565.00
71.7769 683.00
71.8421 612.00
71.9073 645.00
71.9725 693.00
72.0377 766.00
72.1029 748.00
72.1681 833.00
72.2333 847.00
72.2985 778.00
72.3637 674.00
72.4289 646.00
72.4941 563.00
72.5593 508.00
72.6245 468.00
72.6897 456.00
72.7549 495.00
72.8201 480.00
72.8853 482.00
72.9505 477.00
73.0157 473.00
73.0809 486.00
73.1461 446.00
73.2113 485.00
73.2765 341.00
73.3417 428.00
73.4069 414.00
73.4721 418.00
73.5373 409.00
73.6025 459.00
73.6677 524.00
73.7329 528.00
73.7981 556.00
73.8633 529.00
73.9285 521.00
73.9937 517.00
74.0589 522.00
74.1241 514.00
74.1893 463.00
74.2545 415.00
74.3197 438.00
74.3849 456.00
74.4501 412.00
74.5153 440.00
74.5805 438.00
74.6457 509.00
74.7109 593.00
74.7761 477.00
74.8413 419.00
74.9065 481.00
74.9717 481.00
75.0369 456.00
75.1021 509.00
75.1673 493.00
75.2325 455.00
75.2977 463.00
75.3629 512.00
75.4281 463.00
75.4933 440.00
75.5585 474.00
75.6237 536.00
75.6889 588.00
75.7541 593.00
75.8193 628.00
75.8845 628.00
75.9497 621.00
76.0149 630.00
76.0801 607.00
76.1452 623.00
76.2104 685.00
76.2756 689.00
76.3409 820.00
76.406 865.00
76.4712 880.00
76.5364 910.00
76.6016 902.00
76.6668 1019.00
76.732 1130.00
76.7972 1125.00
76.8624 1215.00
76.9276 1241.00
76.9928 1185.00
77.058 1293.00
77.1232 1343.00
77.1884 1254.00
77.2536 1105.00
77.3188 975.00
77.384 868.00
77.4492 792.00
77.5144 662.00
77.5796 581.00
77.6448 567.00
77.71 480.00
77.7752 493.00
77.8404 450.00
77.9056 409.00
77.9708 373.00
78.036 348.00
78.1012 357.00
78.1664 313.00
78.2316 333.00
78.2968 341.00
78.362 359.00
78.4272 330.00
78.4924 405.00
78.5576 403.00
78.6228 476.00
78.688 541.00
78.7532 520.00
78.8184 506.00
78.8836 523.00
78.9488 455.00
79.014 446.00
79.0792 402.00
79.1444 418.00
79.2096 372.00
79.2748 290.00
79.34 319.00
79.4052 327.00
79.4704 367.00
79.5356 373.00
79.6008 412.00
79.666 488.00
79.7312 561.00
79.7964 439.00
79.8616 409.00
79.9268 440.00
79.992 483.00
80.0572 520.00
80.1224 523.00
80.1876 421.00
80.2528 417.00
80.318 535.00
80.3832 443.00
80.4484 421.00
80.5136 425.00
80.5788 382.00
80.644 421.00
80.7092 388.00
80.7744 374.00
80.8396 420.00
80.9048 382.00
80.9699 451.00
81.0351 489.00
81.1003 509.00
81.1655 512.00
81.2307 478.00
81.2959 485.00
81.3611 499.00
81.4263 511.00
81.4915 524.00
81.5567 552.00
81.6219 574.00
81.6871 658.00
81.7523 787.00
81.8175 782.00
81.8827 836.00
81.9479 743.00
82.0131 739.00
82.0783 720.00
82.1435 675.00
82.2087 669.00
82.2739 584.00
82.3391 595.00
82.4043 610.00
82.4695 581.00
82.5347 564.00
82.5999 593.00
82.6651 582.00
82.7303 613.00
82.7955 578.00
82.8607 590.00
82.9259 632.00
82.9911 651.00
83.0563 634.00
83.1215 632.00
83.1867 631.00
83.2519 624.00
83.3171 624.00
83.3823 669.00
83.4475 698.00
83.5127 779.00
83.5779 759.00
83.6431 822.00
83.7083 782.00
83.7735 818.00
83.8387 826.00
83.9039 739.00
83.9691 781.00
84.0343 631.00
84.0995 591.00
84.1647 588.00
84.2299 496.00
84.2951 432.00
84.3603 464.00
84.4255 408.00
84.4907 410.00
84.5559 392.00
84.6211 418.00
84.6863 480.00
84.7515 428.00
84.8167 443.00
84.8819 462.00
84.9471 512.00
85.0123 508.00
85.0775 564.00
85.1427 537.00
85.2079 533.00
85.2731 498.00
85.3383 503.00
85.4035 444.00
85.4687 502.00
85.5339 471.00
85.5991 452.00
85.6643 486.00
85.7295 483.00
85.7946 513.00
85.8598 612.00
85.925 639.00
85.9903 648.00
86.0554 685.00
86.1206 747.00
86.1858 817.00
86.251 781.00
86.3162 806.00
86.3814 772.00
86.4466 839.00
86.5118 763.00
86.577 772.00
86.6422 743.00
86.7074 697.00
86.7726 631.00
86.8378 654.00
86.903 670.00
86.9682 633.00
87.0334 646.00
87.0986 565.00
87.1638 612.00
87.229 668.00
87.2942 695.00
87.3594 774.00
87.4246 800.00
87.4898 807.00
87.555 828.00
87.6202 810.00
87.6854 873.00
87.7506 800.00
87.8158 730.00
87.881 773.00
87.9462 654.00
88.0114 631.00
88.0766 620.00
88.1418 610.00
88.207 614.00
88.2722 582.00
88.3374 644.00
88.4026 607.00
88.4678 581.00
88.533 568.00
88.5982 570.00
88.6634 612.00
88.7286 579.00
88.7938 572.00
88.859 555.00
88.9242 541.00
88.9894 492.00
89.0546 430.00
89.1198 431.00
89.185 397.00
89.2502 429.00
89.3154 414.00
89.3806 365.00
89.4458 350.00
89.511 339.00
89.5762 369.00
89.6414 348.00
89.7066 369.00
89.7718 353.00
89.837 328.00
89.9022 336.00
89.9674 329.00
90.0326 346.00
90.0978 359.00
90.163 348.00
90.2282 361.00
90.2934 343.00
90.3586 369.00
90.4238 356.00
90.489 365.00
90.5542 424.00
90.6193 423.00
90.6845 380.00
90.7497 369.00
90.8149 374.00
90.8801 330.00
90.9453 371.00
91.0105 333.00
91.0757 362.00
91.1409 346.00
91.2061 360.00
91.2713 394.00
91.3365 393.00
91.4017 367.00
91.4669 425.00
91.5321 371.00
91.5973 380.00
91.6625 382.00
91.7277 417.00
91.7929 432.00
91.8581 425.00
91.9233 469.00
91.9885 455.00
92.0537 429.00
92.1189 457.00
92.1841 527.00
92.2493 507.00
92.3145 539.00
92.3797 458.00
92.4449 437.00
92.5101 450.00
92.5753 477.00
92.6405 469.00
92.7057 393.00
92.7709 402.00
92.8361 359.00
92.9013 361.00
92.9665 387.00
93.0317 390.00
93.0969 394.00
93.1621 413.00
93.2273 405.00
93.2925 405.00
93.3577 393.00
93.4229 428.00
93.4881 406.00
93.5533 380.00
93.6185 379.00
93.6837 357.00
93.7489 394.00
93.8141 362.00
93.8793 308.00
93.9445 349.00
94.0097 382.00
94.0749 357.00
94.1401 381.00
94.2053 368.00
94.2705 377.00
94.3357 413.00
94.4009 407.00
94.4661 420.00
94.5313 456.00
94.5965 461.00
94.6617 452.00
94.7269 423.00
94.7921 451.00
94.8573 423.00
94.9225 391.00
94.9877 368.00
95.0529 373.00
95.1181 402.00
95.1833 373.00
95.2485 375.00
95.3137 413.00
95.3789 411.00
95.444 503.00
95.5092 448.00
95.5744 476.00
95.6396 485.00
95.7048 488.00
95.77 535.00
95.8352 506.00
95.9004 554.00
95.9656 458.00
96.0308 444.00
96.096 454.00
96.1612 434.00
96.2264 472.00
96.2916 422.00
96.3568 461.00
96.422 463.00
96.4872 402.00
96.5524 464.00
96.6176 444.00
96.6828 446.00
96.748 436.00
96.8132 437.00
96.8784 464.00
96.9436 447.00
97.0088 446.00
97.074 460.00
97.1392 466.00
97.2044 527.00
97.2696 483.00
97.3348 455.00
97.4 430.00
97.4652 458.00
97.5304 414.00
97.5956 424.00
97.6608 399.00
97.726 423.00
97.7912 418.00
97.8564 399.00
97.9216 431.00
97.9868 429.00
98.052 422.00
98.1172 372.00
98.1824 419.00
98.2476 382.00
98.3128 393.00
98.378 357.00
98.4432 359.00
98.5084 297.00
98.5736 349.00
98.6388 322.00
98.704 307.00
98.7692 318.00
98.8344 309.00
98.8996 325.00
98.9648 359.00
99.03 312.00
99.0952 303.00
99.1604 302.00
99.2256 346.00
99.2908 358.00
99.356 398.00
99.4212 358.00
99.4864 324.00
99.5516 372.00
99.6168 381.00
99.682 478.00
99.7472 499.00
99.8124 396.00
99.8776 363.00
99.9428 335.00
100.008 394.00
100.073 423.00
100.095 434.00