File: data/xrd_creation/results/PG_2041-1.xy
9.903433 2672.00
9.968632 2661.00
10.0338 2733.00
10.099 2634.00
10.1642 2633.00
10.2294 2609.00
10.2946 2608.00
10.3598 2509.00
10.425 2606.00
10.4902 2440.00
10.5554 2460.00
10.6206 2604.00
10.6858 2389.00
10.751 2424.00
10.8162 2409.00
10.8814 2403.00
10.9466 2459.00
11.0118 2302.00
11.077 2363.00
11.1422 2356.00
11.2074 2275.00
11.2726 2246.00
11.3378 2294.00
11.403 2205.00
11.4682 2247.00
11.5334 2170.00
11.5986 2177.00
11.6638 2213.00
11.729 2211.00
11.7942 2166.00
11.8594 2182.00
11.9246 2165.00
11.9898 2084.00
12.055 2124.00
12.1202 2112.00
12.1854 2143.00
12.2506 2104.00
12.3158 2072.00
12.381 2008.00
12.4462 2003.00
12.5114 2103.00
12.5766 2009.00
12.6418 1965.00
12.707 2023.00
12.7722 1961.00
12.8374 1942.00
12.9026 2018.00
12.9678 2001.00
13.033 1945.00
13.0982 1863.00
13.1634 1801.00
13.2286 1914.00
13.2938 1861.00
13.359 1807.00
13.4242 1856.00
13.4894 1906.00
13.5546 1916.00
13.6198 1825.00
13.685 1965.00
13.7502 2021.00
13.8154 2173.00
13.8805 2284.00
13.9457 2594.00
14.0109 3034.00
14.0761 3687.00
14.1413 2927.00
14.2065 2146.00
14.2717 1911.00
14.3369 1777.00
14.4021 1794.00
14.4673 1764.00
14.5325 1795.00
14.5977 1743.00
14.6629 1698.00
14.7281 1691.00
14.7933 1715.00
14.8585 1770.00
14.9237 1740.00
14.9889 1661.00
15.0541 1690.00
15.1193 1635.00
15.1845 1641.00
15.2497 1683.00
15.3149 1670.00
15.3801 1720.00
15.4453 1524.00
15.5105 1663.00
15.5757 1640.00
15.6409 1608.00
15.7061 1684.00
15.7713 1587.00
15.8365 1670.00
15.9017 1595.00
15.9669 1547.00
16.0321 1563.00
16.0973 1611.00
16.1625 1565.00
16.2277 1538.00
16.2929 1614.00
16.3581 1624.00
16.4233 1463.00
16.4885 1512.00
16.5537 1573.00
16.6189 1539.00
16.6841 1537.00
16.7493 1527.00
16.8145 1517.00
16.8797 1496.00
16.9449 1485.00
17.0101 1566.00
17.0753 1526.00
17.1405 1518.00
17.2057 1483.00
17.2709 1512.00
17.3361 1532.00
17.4013 1520.00
17.4665 1523.00
17.5317 1581.00
17.5969 1645.00
17.6621 1774.00
17.7273 1964.00
17.7925 1823.00
17.8577 1491.00
17.9229 1408.00
17.9881 1397.00
18.0533 1367.00
18.1185 1412.00
18.1837 1356.00
18.2489 1327.00
18.3141 1381.00
18.3793 1372.00
18.4445 1307.00
18.5097 1406.00
18.5749 1350.00
18.6401 1336.00
18.7052 1372.00
18.7704 1365.00
18.8356 1371.00
18.9008 1359.00
18.966 1340.00
19.0312 1284.00
19.0964 1299.00
19.1616 1287.00
19.2268 1336.00
19.292 1345.00
19.3572 1290.00
19.4224 1264.00
19.4876 1346.00
19.5528 1301.00
19.618 1344.00
19.6832 1397.00
19.7484 1386.00
19.8136 1415.00
19.8788 1195.00
19.944 1220.00
20.0092 1229.00
20.0744 1195.00
20.1396 1281.00
20.2048 1174.00
20.27 1232.00
20.3352 1224.00
20.4004 1166.00
20.4656 1193.00
20.5308 1246.00
20.596 1225.00
20.6612 1172.00
20.7264 1260.00
20.7916 1186.00
20.8568 1216.00
20.922 1188.00
20.9872 1212.00
21.0524 1134.00
21.1176 1209.00
21.1828 1153.00
21.248 1192.00
21.3132 1179.00
21.3784 1110.00
21.4436 1114.00
21.5088 1185.00
21.574 1197.00
21.6392 1122.00
21.7044 1043.00
21.7696 1184.00
21.8348 1122.00
21.9 1133.00
21.9652 1138.00
22.0304 1163.00
22.0956 1136.00
22.1608 1075.00
22.226 1078.00
22.2912 1227.00
22.3564 1147.00
22.4216 1086.00
22.4868 1054.00
22.552 1116.00
22.6172 1025.00
22.6824 1055.00
22.7476 1164.00
22.8128 1091.00
22.878 1150.00
22.9432 1094.00
23.0084 1073.00
23.0736 1077.00
23.1388 1069.00
23.204 1086.00
23.2692 1046.00
23.3344 1120.00
23.3996 1030.00
23.4647 1050.00
23.5299 1108.00
23.5951 1030.00
23.6603 1060.00
23.7255 1067.00
23.7907 1134.00
23.8559 1149.00
23.9211 1268.00
23.9863 1533.00
24.0515 2218.00
24.1167 3551.00
24.1819 5652.00
24.2471 4152.00
24.3123 1777.00
24.3775 1251.00
24.4427 1051.00
24.5079 1040.00
24.5731 1069.00
24.6383 1048.00
24.7035 1023.00
24.7687 1013.00
24.8339 999.00
24.8991 1024.00
24.9643 994.00
25.0295 1025.00
25.0947 1016.00
25.1599 1012.00
25.2251 988.00
25.2903 1006.00
25.3555 981.00
25.4207 983.00
25.4859 955.00
25.5511 951.00
25.6163 913.00
25.6815 1020.00
25.7467 1111.00
25.8119 1137.00
25.8771 1081.00
25.9423 977.00
26.0075 945.00
26.0727 932.00
26.1379 935.00
26.2031 923.00
26.2683 936.00
26.3335 907.00
26.3987 963.00
26.4639 909.00
26.5291 999.00
26.5943 912.00
26.6595 979.00
26.7247 930.00
26.7899 956.00
26.8551 948.00
26.9203 954.00
26.9855 1020.00
27.0507 1004.00
27.1159 1091.00
27.1811 1030.00
27.2463 990.00
27.3115 1098.00
27.3767 1120.00
27.4419 1139.00
27.5071 1182.00
27.5723 1357.00
27.6375 1450.00
27.7027 1816.00
27.7679 2579.00
27.8331 4450.00
27.8983 8828.00
27.9635 16847.00
28.0287 21787.00
28.0939 13112.00
28.1591 5181.00
28.2243 2606.00
28.2894 1838.00
28.3546 1541.00
28.4198 1355.00
28.485 1184.00
28.5502 1237.00
28.6154 1442.00
28.6806 1738.00
28.7458 1509.00
28.811 1315.00
28.8762 1191.00
28.9414 1143.00
29.0066 1084.00
29.0718 934.00
29.137 890.00
29.2022 954.00
29.2674 935.00
29.3326 921.00
29.3978 880.00
29.463 839.00
29.5282 894.00
29.5934 880.00
29.6586 867.00
29.7238 848.00
29.789 891.00
29.8542 935.00
29.9194 1079.00
29.9846 1392.00
30.0498 1274.00
30.115 1047.00
30.1802 885.00
30.2454 916.00
30.3106 813.00
30.3758 820.00
30.441 855.00
30.5062 837.00
30.5714 894.00
30.6366 897.00
30.7018 884.00
30.767 927.00
30.8322 1138.00
30.8974 1632.00
30.9626 2950.00
31.0278 5170.00
31.093 4069.00
31.1582 2179.00
31.2234 1090.00
31.2886 970.00
31.3538 881.00
31.419 871.00
31.4842 885.00
31.5494 893.00
31.6146 811.00
31.6798 816.00
31.745 837.00
31.8102 857.00
31.8754 880.00
31.9406 932.00
32.0058 949.00
32.071 1028.00
32.1362 1236.00
32.2014 1798.00
32.2666 2946.00
32.3318 5494.00
32.397 8240.00
32.4622 6161.00
32.5274 3468.00
32.5926 1757.00
32.6578 1301.00
32.723 1058.00
32.7882 924.00
32.8534 860.00
32.9186 850.00
32.9838 822.00
33.0489 767.00
33.1141 762.00
33.1793 751.00
33.2445 736.00
33.3097 751.00
33.3749 861.00
33.4401 714.00
33.5053 683.00
33.5705 714.00
33.6357 712.00
33.7009 697.00
33.7661 701.00
33.8313 766.00
33.8965 685.00
33.9617 710.00
34.0269 751.00
34.0921 815.00
34.1573 962.00
34.2225 1155.00
34.2877 1710.00
34.3529 1586.00
34.4181 1235.00
34.4833 829.00
34.5485 785.00
34.6137 731.00
34.6789 657.00
34.7441 689.00
34.8093 698.00
34.8745 679.00
34.9397 660.00
35.0049 672.00
35.0701 758.00
35.1353 831.00
35.2005 1008.00
35.2657 1495.00
35.3309 2319.00
35.3961 2471.00
35.4613 1868.00
35.5265 1377.00
35.5917 986.00
35.6569 829.00
35.7221 684.00
35.7873 683.00
35.8525 609.00
35.9177 623.00
35.9829 613.00
36.0481 582.00
36.1133 612.00
36.1785 618.00
36.2437 565.00
36.3089 583.00
36.3741 556.00
36.4393 533.00
36.5045 597.00
36.5697 598.00
36.6349 559.00
36.7001 599.00
36.7653 614.00
36.8305 629.00
36.8957 652.00
36.9609 652.00
37.0261 573.00
37.0913 595.00
37.1565 548.00
37.2217 580.00
37.2869 552.00
37.3521 517.00
37.4173 559.00
37.4825 585.00
37.5477 555.00
37.6129 593.00
37.6781 543.00
37.7433 554.00
37.8085 495.00
37.8736 514.00
37.9388 537.00
38.004 559.00
38.0692 538.00
38.1344 518.00
38.1996 555.00
38.2648 528.00
38.33 624.00
38.3952 647.00
38.4604 705.00
38.5256 685.00
38.5908 704.00
38.656 776.00
38.7212 1155.00
38.7864 1151.00
38.8516 875.00
38.9168 637.00
38.982 582.00
39.0472 538.00
39.1124 541.00
39.1776 487.00
39.2428 541.00
39.308 571.00
39.3732 506.00
39.4384 490.00
39.5036 525.00
39.5688 500.00
39.634 539.00
39.6992 544.00
39.7644 625.00
39.8296 758.00
39.8948 821.00
39.96 727.00
40.0252 625.00
40.0904 562.00
40.1556 558.00
40.2208 558.00
40.286 488.00
40.3512 472.00
40.4164 507.00
40.4816 515.00
40.5468 488.00
40.612 496.00
40.6772 524.00
40.7424 486.00
40.8076 571.00
40.8728 655.00
40.938 734.00
41.0032 591.00
41.0684 600.00
41.1336 528.00
41.1988 492.00
41.264 489.00
41.3292 516.00
41.3944 515.00
41.4596 523.00
41.5248 503.00
41.59 460.00
41.6552 511.00
41.7204 481.00
41.7856 466.00
41.8508 491.00
41.916 498.00
41.9812 504.00
42.0464 529.00
42.1116 472.00
42.1768 551.00
42.242 610.00
42.3072 765.00
42.3724 978.00
42.4376 837.00
42.5028 772.00
42.568 609.00
42.6332 531.00
42.6983 508.00
42.7635 480.00
42.8287 435.00
42.8939 479.00
42.9591 453.00
43.0243 459.00
43.0895 462.00
43.1547 504.00
43.2199 479.00
43.2851 437.00
43.3503 466.00
43.4155 460.00
43.4807 448.00
43.5459 468.00
43.6111 457.00
43.6763 451.00
43.7415 433.00
43.8067 465.00
43.8719 452.00
43.9371 429.00
44.0023 461.00
44.0675 451.00
44.1327 484.00
44.1979 479.00
44.2631 472.00
44.3283 487.00
44.3935 469.00
44.4587 506.00
44.5239 519.00
44.5891 495.00
44.6543 515.00
44.7195 516.00
44.7847 500.00
44.8499 481.00
44.9151 488.00
44.9803 476.00
45.0455 536.00
45.1107 490.00
45.1759 490.00
45.2411 491.00
45.3063 518.00
45.3715 501.00
45.4367 508.00
45.5019 486.00
45.5671 475.00
45.6323 494.00
45.6975 557.00
45.7627 597.00
45.8279 710.00
45.8931 780.00
45.9583 1019.00
46.0235 1503.00
46.0887 1751.00
46.1539 2393.00
46.2191 4261.00
46.2843 7815.00
46.3495 6561.00
46.4147 4985.00
46.4799 3045.00
46.5451 1588.00
46.6103 1320.00
46.6755 1682.00
46.7407 2847.00
46.8059 2547.00
46.8711 2036.00
46.9363 1267.00
47.0015 715.00
47.0667 635.00
47.1319 552.00
47.1971 540.00
47.2623 549.00
47.3275 623.00
47.3927 530.00
47.4579 556.00
47.523 483.00
47.5882 481.00
47.6534 443.00
47.7186 485.00
47.7838 482.00
47.849 542.00
47.9142 619.00
47.9794 582.00
48.0446 551.00
48.1098 519.00
48.175 511.00
48.2402 432.00
48.3054 451.00
48.3706 477.00
48.4358 573.00
48.501 751.00
48.5662 753.00
48.6314 652.00
48.6966 570.00
48.7618 523.00
48.827 453.00
48.8922 469.00
48.9574 457.00
49.0226 495.00
49.0878 508.00
49.153 539.00
49.2182 495.00
49.2834 543.00
49.3486 464.00
49.4138 471.00
49.479 440.00
49.5442 402.00
49.6094 429.00
49.6746 405.00
49.7398 413.00
49.805 428.00
49.8702 460.00
49.9354 478.00
50.0006 415.00
50.0658 413.00
50.131 454.00
50.1962 440.00
50.2614 415.00
50.3266 470.00
50.3918 443.00
50.457 388.00
50.5222 420.00
50.5874 399.00
50.6526 470.00
50.7178 480.00
50.783 562.00
50.8482 590.00
50.9134 516.00
50.9786 534.00
51.0438 498.00
51.109 402.00
51.1742 410.00
51.2394 468.00
51.3046 427.00
51.3698 396.00
51.435 408.00
51.5002 419.00
51.5654 419.00
51.6306 424.00
51.6958 384.00
51.761 389.00
51.8262 396.00
51.8914 372.00
51.9566 380.00
52.0218 413.00
52.087 408.00
52.1522 432.00
52.2174 425.00
52.2826 380.00
52.3477 394.00
52.4129 386.00
52.4781 395.00
52.5433 433.00
52.6085 369.00
52.6737 419.00
52.7389 396.00
52.8041 388.00
52.8693 482.00
52.9345 415.00
52.9997 421.00
53.0649 402.00
53.1301 402.00
53.1953 424.00
53.2605 413.00
53.3257 403.00
53.3909 422.00
53.4561 406.00
53.5213 438.00
53.5865 439.00
53.6517 417.00
53.7169 438.00
53.7821 418.00
53.8473 436.00
53.9125 477.00
53.9777 457.00
54.0429 449.00
54.1081 451.00
54.1733 512.00
54.2385 560.00
54.3037 528.00
54.3689 640.00
54.4341 720.00
54.4993 887.00
54.5645 993.00
54.6297 1417.00
54.6949 2284.00
54.7601 4555.00
54.8253 7267.00
54.8905 5293.00
54.9557 4628.00
55.0209 3260.00
55.0861 1656.00
55.1513 1110.00
55.2165 918.00
55.2817 976.00
55.3469 1099.00
55.4121 836.00
55.4773 765.00
55.5425 637.00
55.6077 477.00
55.6729 515.00
55.7381 462.00
55.8033 463.00
55.8685 453.00
55.9337 416.00
55.9989 413.00
56.0641 401.00
56.1293 447.00
56.1945 433.00
56.2597 403.00
56.3249 415.00
56.3901 391.00
56.4553 407.00
56.5205 421.00
56.5857 455.00
56.6509 404.00
56.7161 454.00
56.7813 430.00
56.8465 474.00
56.9117 436.00
56.9769 472.00
57.042 461.00
57.1073 498.00
57.1724 542.00
57.2376 553.00
57.3028 760.00
57.368 1200.00
57.4332 2055.00
57.4984 2089.00
57.5636 1494.00
57.6288 1555.00
57.694 939.00
57.7592 653.00
57.8244 529.00
57.8896 517.00
57.9548 480.00
58.02 456.00
58.0852 409.00
58.1504 378.00
58.2156 427.00
58.2808 407.00
58.346 384.00
58.4112 436.00
58.4764 422.00
58.5416 473.00
58.6068 633.00
58.672 786.00
58.7372 576.00
58.8024 594.00
58.8676 583.00
58.9328 510.00
58.998 632.00
59.0632 958.00
59.1284 874.00
59.1936 763.00
59.2588 978.00
59.324 1199.00
59.3892 1591.00
59.4544 1240.00
59.5196 1113.00
59.5848 1030.00
59.65 687.00
59.7152 540.00
59.7804 438.00
59.8456 416.00
59.9108 413.00
59.976 402.00
60.0412 419.00
60.1064 540.00
60.1716 408.00
60.2368 405.00
60.302 408.00
60.3672 358.00
60.4324 360.00
60.4976 357.00
60.5628 333.00
60.628 374.00
60.6932 353.00
60.7584 387.00
60.8236 356.00
60.8888 350.00
60.954 377.00
61.0192 373.00
61.0844 384.00
61.1496 429.00
61.2148 397.00
61.28 396.00
61.3452 380.00
61.4104 366.00
61.4756 311.00
61.5408 387.00
61.606 341.00
61.6712 348.00
61.7364 356.00
61.8016 342.00
61.8667 346.00
61.932 367.00
61.9971 352.00
62.0623 351.00
62.1275 327.00
62.1927 333.00
62.2579 364.00
62.3231 339.00
62.3883 347.00
62.4535 379.00
62.5187 373.00
62.5839 363.00
62.6491 350.00
62.7143 342.00
62.7795 334.00
62.8447 317.00
62.9099 339.00
62.9751 334.00
63.0403 355.00
63.1055 344.00
63.1707 328.00
63.2359 348.00
63.3011 330.00
63.3663 343.00
63.4315 352.00
63.4967 336.00
63.5619 371.00
63.6271 335.00
63.6923 340.00
63.7575 345.00
63.8227 402.00
63.8879 397.00
63.9531 386.00
64.0183 416.00
64.0835 503.00
64.1487 558.00
64.2139 751.00
64.2791 1008.00
64.3443 1143.00
64.4095 969.00
64.4747 787.00
64.5399 756.00
64.6051 562.00
64.6703 418.00
64.7355 382.00
64.8007 338.00
64.8659 342.00
64.9311 343.00
64.9963 334.00
65.0615 346.00
65.1267 313.00
65.1919 344.00
65.2571 310.00
65.3223 348.00
65.3875 315.00
65.4527 357.00
65.5179 311.00
65.5831 309.00
65.6483 346.00
65.7135 333.00
65.7787 275.00
65.8439 332.00
65.9091 318.00
65.9743 309.00
66.0395 339.00
66.1047 355.00
66.1699 311.00
66.2351 297.00
66.3003 318.00
66.3655 287.00
66.4307 319.00
66.4959 306.00
66.561 343.00
66.6263 330.00
66.6915 330.00
66.7566 321.00
66.8218 317.00
66.887 401.00
66.9522 427.00
67.0174 422.00
67.0826 421.00
67.1478 443.00
67.213 541.00
67.2782 730.00
67.3434 1118.00
67.4086 933.00
67.4738 794.00
67.539 833.00
67.6042 651.00
67.6694 450.00
67.7346 380.00
67.7998 359.00
67.865 359.00
67.9302 333.00
67.9954 351.00
68.0606 353.00
68.1258 330.00
68.191 316.00
68.2562 283.00
68.3214 333.00
68.3866 317.00
68.4518 349.00
68.517 310.00
68.5822 325.00
68.6474 347.00
68.7126 357.00
68.7778 379.00
68.843 367.00
68.9082 437.00
68.9734 494.00
69.0386 694.00
69.1038 1037.00
69.169 873.00
69.2342 699.00
69.2994 733.00
69.3646 653.00
69.4298 463.00
69.495 386.00
69.5602 403.00
69.6254 370.00
69.6906 375.00
69.7558 379.00
69.821 383.00
69.8862 550.00
69.9514 771.00
70.0166 569.00
70.0818 445.00
70.147 549.00
70.2122 468.00
70.2774 360.00
70.3426 329.00
70.4078 342.00
70.473 278.00
70.5382 330.00
70.6034 296.00
70.6686 302.00
70.7338 311.00
70.799 299.00
70.8642 297.00
70.9294 318.00
70.9946 335.00
71.0598 324.00
71.125 318.00
71.1902 334.00
71.2554 312.00
71.3205 333.00
71.3858 330.00
71.451 310.00
71.5162 310.00
71.5813 305.00
71.6465 350.00
71.7117 368.00
71.7769 431.00
71.8421 449.00
71.9073 413.00
71.9725 465.00
72.0377 527.00
72.1029 420.00
72.1681 367.00
72.2333 332.00
72.2985 339.00
72.3637 315.00
72.4289 312.00
72.4941 299.00
72.5593 345.00
72.6245 319.00
72.6897 350.00
72.7549 340.00
72.8201 323.00
72.8853 307.00
72.9505 303.00
73.0157 330.00
73.0809 299.00
73.1461 292.00
73.2113 334.00
73.2765 330.00
73.3417 325.00
73.4069 321.00
73.4721 312.00
73.5373 337.00
73.6025 393.00
73.6677 440.00
73.7329 514.00
73.7981 487.00
73.8633 458.00
73.9285 562.00
73.9937 598.00
74.0589 580.00
74.1241 671.00
74.1893 985.00
74.2545 1724.00
74.3197 2130.00
74.3849 1428.00
74.4501 1328.00
74.5153 1448.00
74.5805 1143.00
74.6457 784.00
74.7109 928.00
74.7761 637.00
74.8413 505.00
74.9065 581.00
74.9717 526.00
75.0369 391.00
75.1021 337.00
75.1673 364.00
75.2325 326.00
75.2977 301.00
75.3629 346.00
75.4281 313.00
75.4933 333.00
75.5585 321.00
75.6237 343.00
75.6889 319.00
75.7541 336.00
75.8193 343.00
75.8845 379.00
75.9497 351.00
76.0149 384.00
76.0801 403.00
76.1452 406.00
76.2104 453.00
76.2756 513.00
76.3409 586.00
76.406 688.00
76.4712 1117.00
76.5364 1790.00
76.6016 1724.00
76.6668 1201.00
76.732 1188.00
76.7972 1278.00
76.8624 899.00
76.9276 701.00
76.9928 515.00
77.058 444.00
77.1232 440.00
77.1884 362.00
77.2536 379.00
77.3188 338.00
77.384 352.00
77.4492 358.00
77.5144 309.00
77.5796 324.00
77.6448 346.00
77.71 353.00
77.7752 373.00
77.8404 324.00
77.9056 400.00
77.9708 359.00
78.036 374.00
78.1012 385.00
78.1664 506.00
78.2316 592.00
78.2968 561.00
78.362 475.00
78.4272 498.00
78.4924 506.00
78.5576 409.00
78.6228 383.00
78.688 373.00
78.7532 367.00
78.8184 346.00
78.8836 312.00
78.9488 329.00
79.014 347.00
79.0792 340.00
79.1444 357.00
79.2096 310.00
79.2748 328.00
79.34 285.00
79.4052 318.00
79.4704 355.00
79.5356 338.00
79.6008 336.00
79.666 448.00
79.7312 641.00
79.7964 485.00
79.8616 421.00
79.9268 466.00
79.992 530.00
80.0572 506.00
80.1224 590.00
80.1876 408.00
80.2528 337.00
80.318 391.00
80.3832 404.00
80.4484 318.00
80.5136 313.00
80.5788 307.00
80.644 315.00
80.7092 298.00
80.7744 294.00
80.8396 282.00
80.9048 286.00
80.9699 297.00
81.0351 332.00
81.1003 301.00
81.1655 297.00
81.2307 319.00
81.2959 289.00
81.3611 294.00
81.4263 297.00
81.4915 280.00
81.5567 303.00
81.6219 323.00
81.6871 380.00
81.7523 341.00
81.8175 378.00
81.8827 499.00
81.9479 390.00
82.0131 342.00
82.0783 379.00
82.1435 406.00
82.2087 353.00
82.2739 318.00
82.3391 351.00
82.4043 341.00
82.4695 327.00
82.5347 386.00
82.5999 444.00
82.6651 505.00
82.7303 415.00
82.7955 397.00
82.8607 358.00
82.9259 403.00
82.9911 339.00
83.0563 305.00
83.1215 301.00
83.1867 303.00
83.2519 282.00
83.3171 296.00
83.3823 307.00
83.4475 294.00
83.5127 286.00
83.5779 295.00
83.6431 301.00
83.7083 313.00
83.7735 315.00
83.8387 317.00
83.9039 287.00
83.9691 274.00
84.0343 303.00
84.0995 281.00
84.1647 264.00
84.2299 300.00
84.2951 286.00
84.3603 268.00
84.4255 293.00
84.4907 257.00
84.5559 304.00
84.6211 283.00
84.6863 286.00
84.7515 294.00
84.8167 304.00
84.8819 307.00
84.9471 345.00
85.0123 340.00
85.0775 351.00
85.1427 450.00
85.2079 406.00
85.2731 584.00
85.3383 806.00
85.4035 1223.00
85.4687 992.00
85.5339 704.00
85.5991 710.00
85.6643 893.00
85.7295 767.00
85.7946 532.00
85.8598 383.00
85.925 404.00
85.9903 397.00
86.0554 340.00
86.1206 308.00
86.1858 331.00
86.251 284.00
86.3162 296.00
86.3814 256.00
86.4466 298.00
86.5118 300.00
86.577 298.00
86.6422 263.00
86.7074 308.00
86.7726 345.00
86.8378 317.00
86.903 363.00
86.9682 433.00
87.0334 506.00
87.0986 496.00
87.1638 384.00
87.229 361.00
87.2942 408.00
87.3594 395.00
87.4246 319.00
87.4898 283.00
87.555 299.00
87.6202 278.00
87.6854 274.00
87.7506 272.00
87.8158 256.00
87.881 247.00
87.9462 246.00
88.0114 265.00
88.0766 256.00
88.1418 273.00
88.207 261.00
88.2722 287.00
88.3374 311.00
88.4026 244.00
88.4678 277.00
88.533 294.00
88.5982 262.00
88.6634 276.00
88.7286 287.00
88.7938 269.00
88.859 272.00
88.9242 297.00
88.9894 288.00
89.0546 305.00
89.1198 295.00
89.185 274.00
89.2502 294.00
89.3154 249.00
89.3806 280.00
89.4458 295.00
89.511 280.00
89.5762 283.00
89.6414 295.00
89.7066 310.00
89.7718 326.00
89.837 276.00
89.9022 275.00
89.9674 256.00
90.0326 304.00
90.0978 265.00
90.163 303.00
90.2282 290.00
90.2934 260.00
90.3586 280.00
90.4238 291.00
90.489 300.00
90.5542 316.00
90.6193 293.00
90.6845 274.00
90.7497 311.00
90.8149 336.00
90.8801 325.00
90.9453 299.00
91.0105 339.00
91.0757 383.00
91.1409 390.00
91.2061 485.00
91.2713 520.00
91.3365 665.00
91.4017 928.00
91.4669 913.00
91.5321 674.00
91.5973 612.00
91.6625 701.00
91.7277 817.00
91.7929 762.00
91.8581 885.00
91.9233 1226.00
91.9885 1290.00
92.0537 902.00
92.1189 737.00
92.1841 792.00
92.2493 863.00
92.3145 822.00
92.3797 573.00
92.4449 464.00
92.5101 382.00
92.5753 357.00
92.6405 354.00
92.7057 307.00
92.7709 311.00
92.8361 304.00
92.9013 321.00
92.9665 299.00
93.0317 309.00
93.0969 292.00
93.1621 282.00
93.2273 307.00
93.2925 280.00
93.3577 291.00
93.4229 310.00
93.4881 312.00
93.5533 278.00
93.6185 288.00
93.6837 266.00
93.7489 249.00
93.8141 299.00
93.8793 270.00
93.9445 213.00
94.0097 314.00
94.0749 303.00
94.1401 292.00
94.2053 249.00
94.2705 286.00
94.3357 283.00
94.4009 302.00
94.4661 312.00
94.5313 275.00
94.5965 268.00
94.6617 284.00
94.7269 280.00
94.7921 282.00
94.8573 271.00
94.9225 272.00
94.9877 267.00
95.0529 288.00
95.1181 263.00
95.1833 283.00
95.2485 271.00
95.3137 302.00
95.3789 352.00
95.444 422.00
95.5092 466.00
95.5744 367.00
95.6396 351.00
95.7048 389.00
95.77 503.00
95.8352 513.00
95.9004 394.00
95.9656 361.00
96.0308 342.00
96.096 402.00
96.1612 366.00
96.2264 285.00
96.2916 317.00
96.3568 319.00
96.422 299.00
96.4872 312.00
96.5524 350.00
96.6176 353.00
96.6828 268.00
96.748 263.00
96.8132 312.00
96.8784 310.00
96.9436 287.00
97.0088 242.00
97.074 270.00
97.1392 250.00
97.2044 287.00
97.2696 293.00
97.3348 282.00
97.4 265.00
97.4652 297.00
97.5304 289.00
97.5956 269.00
97.6608 263.00
97.726 281.00
97.7912 233.00
97.8564 234.00
97.9216 290.00
97.9868 244.00
98.052 245.00
98.1172 278.00
98.1824 257.00
98.2476 274.00
98.3128 241.00
98.378 259.00
98.4432 316.00
98.5084 273.00
98.5736 282.00
98.6388 275.00
98.704 248.00
98.7692 248.00
98.8344 266.00
98.8996 278.00
98.9648 247.00
99.03 241.00
99.0952 266.00
99.1604 249.00
99.2256 299.00
99.2908 308.00
99.356 326.00
99.4212 329.00
99.4864 310.00
99.5516 310.00
99.6168 350.00
99.682 407.00
99.7472 520.00
99.8124 369.00
99.8776 358.00
99.9428 330.00
100.008 392.00
100.073 483.00
100.095 442.00