File: data/xrd_creation/results/PG_2044-1.xy
9.903433 2629.00
9.968632 2582.00
10.0338 2542.00
10.099 2639.00
10.1642 2603.00
10.2294 2649.00
10.2946 2525.00
10.3598 2432.00
10.425 2541.00
10.4902 2538.00
10.5554 2468.00
10.6206 2448.00
10.6858 2459.00
10.751 2438.00
10.8162 2356.00
10.8814 2486.00
10.9466 2374.00
11.0118 2215.00
11.077 2419.00
11.1422 2292.00
11.2074 2337.00
11.2726 2262.00
11.3378 2287.00
11.403 2286.00
11.4682 2292.00
11.5334 2206.00
11.5986 2278.00
11.6638 2291.00
11.729 2275.00
11.7942 2296.00
11.8594 2156.00
11.9246 2140.00
11.9898 2167.00
12.055 2115.00
12.1202 2129.00
12.1854 2108.00
12.2506 1981.00
12.3158 2103.00
12.381 2079.00
12.4462 2045.00
12.5114 2076.00
12.5766 2090.00
12.6418 2046.00
12.707 2040.00
12.7722 1918.00
12.8374 1974.00
12.9026 1908.00
12.9678 2025.00
13.033 1996.00
13.0982 1860.00
13.1634 1824.00
13.2286 1878.00
13.2938 1819.00
13.359 1957.00
13.4242 1793.00
13.4894 1824.00
13.5546 1877.00
13.6198 1785.00
13.685 1784.00
13.7502 1807.00
13.8154 1794.00
13.8805 1838.00
13.9457 1777.00
14.0109 1776.00
14.0761 1848.00
14.1413 1783.00
14.2065 1739.00
14.2717 1787.00
14.3369 1764.00
14.4021 1853.00
14.4673 1722.00
14.5325 1812.00
14.5977 1835.00
14.6629 1646.00
14.7281 1732.00
14.7933 1738.00
14.8585 1765.00
14.9237 1724.00
14.9889 1731.00
15.0541 1659.00
15.1193 1671.00
15.1845 1711.00
15.2497 1713.00
15.3149 1711.00
15.3801 1675.00
15.4453 1693.00
15.5105 1744.00
15.5757 1653.00
15.6409 1638.00
15.7061 1624.00
15.7713 1662.00
15.8365 1632.00
15.9017 1535.00
15.9669 1722.00
16.0321 1635.00
16.0973 1610.00
16.1625 1601.00
16.2277 1575.00
16.2929 1540.00
16.3581 1578.00
16.4233 1599.00
16.4885 1577.00
16.5537 1586.00
16.6189 1554.00
16.6841 1646.00
16.7493 1525.00
16.8145 1552.00
16.8797 1519.00
16.9449 1520.00
17.0101 1575.00
17.0753 1513.00
17.1405 1598.00
17.2057 1574.00
17.2709 1631.00
17.3361 1535.00
17.4013 1536.00
17.4665 1572.00
17.5317 1635.00
17.5969 1808.00
17.6621 2072.00
17.7273 2345.00
17.7925 2086.00
17.8577 1647.00
17.9229 1455.00
17.9881 1519.00
18.0533 1587.00
18.1185 1385.00
18.1837 1524.00
18.2489 1478.00
18.3141 1429.00
18.3793 1451.00
18.4445 1441.00
18.5097 1419.00
18.5749 1458.00
18.6401 1429.00
18.7052 1454.00
18.7704 1370.00
18.8356 1370.00
18.9008 1373.00
18.966 1390.00
19.0312 1400.00
19.0964 1402.00
19.1616 1332.00
19.2268 1371.00
19.292 1358.00
19.3572 1396.00
19.4224 1267.00
19.4876 1351.00
19.5528 1379.00
19.618 1348.00
19.6832 1317.00
19.7484 1282.00
19.8136 1407.00
19.8788 1297.00
19.944 1322.00
20.0092 1346.00
20.0744 1329.00
20.1396 1272.00
20.2048 1251.00
20.27 1306.00
20.3352 1312.00
20.4004 1285.00
20.4656 1309.00
20.5308 1278.00
20.596 1284.00
20.6612 1209.00
20.7264 1328.00
20.7916 1239.00
20.8568 1270.00
20.922 1215.00
20.9872 1233.00
21.0524 1222.00
21.1176 1226.00
21.1828 1202.00
21.248 1192.00
21.3132 1173.00
21.3784 1225.00
21.4436 1187.00
21.5088 1126.00
21.574 1242.00
21.6392 1235.00
21.7044 1203.00
21.7696 1236.00
21.8348 1218.00
21.9 1211.00
21.9652 1275.00
22.0304 1139.00
22.0956 1198.00
22.1608 1155.00
22.226 1138.00
22.2912 1100.00
22.3564 1155.00
22.4216 1170.00
22.4868 1133.00
22.552 1129.00
22.6172 1169.00
22.6824 1139.00
22.7476 1162.00
22.8128 1079.00
22.878 1119.00
22.9432 1088.00
23.0084 1121.00
23.0736 1142.00
23.1388 1096.00
23.204 1188.00
23.2692 1113.00
23.3344 1138.00
23.3996 1063.00
23.4647 1137.00
23.5299 1133.00
23.5951 1202.00
23.6603 1217.00
23.7255 1155.00
23.7907 1225.00
23.8559 1229.00
23.9211 1336.00
23.9863 1686.00
24.0515 2519.00
24.1167 4275.00
24.1819 7947.00
24.2471 6625.00
24.3123 2555.00
24.3775 1351.00
24.4427 1293.00
24.5079 1200.00
24.5731 1164.00
24.6383 1055.00
24.7035 1138.00
24.7687 1113.00
24.8339 1099.00
24.8991 1077.00
24.9643 1071.00
25.0295 1079.00
25.0947 1084.00
25.1599 1082.00
25.2251 1085.00
25.2903 1095.00
25.3555 1061.00
25.4207 1041.00
25.4859 1024.00
25.5511 1076.00
25.6163 1088.00
25.6815 1082.00
25.7467 1083.00
25.8119 1061.00
25.8771 1062.00
25.9423 1145.00
26.0075 1145.00
26.0727 1267.00
26.1379 1208.00
26.2031 1328.00
26.2683 1349.00
26.3335 1466.00
26.3987 1595.00
26.4639 1708.00
26.5291 2009.00
26.5943 2407.00
26.6595 3287.00
26.7247 5104.00
26.7899 8959.00
26.8551 15514.00
26.9203 22259.00
26.9855 17889.00
27.0507 9206.00
27.1159 4625.00
27.1811 2968.00
27.2463 2236.00
27.3115 1808.00
27.3767 1537.00
27.4419 1418.00
27.5071 1300.00
27.5723 1246.00
27.6375 1176.00
27.7027 1166.00
27.7679 1091.00
27.8331 1058.00
27.8983 1040.00
27.9635 1068.00
28.0287 1087.00
28.0939 1022.00
28.1591 1007.00
28.2243 968.00
28.2894 940.00
28.3546 943.00
28.4198 957.00
28.485 893.00
28.5502 974.00
28.6154 915.00
28.6806 920.00
28.7458 946.00
28.811 909.00
28.8762 907.00
28.9414 904.00
29.0066 858.00
29.0718 910.00
29.137 885.00
29.2022 797.00
29.2674 822.00
29.3326 881.00
29.3978 910.00
29.463 870.00
29.5282 853.00
29.5934 910.00
29.6586 821.00
29.7238 868.00
29.789 871.00
29.8542 1019.00
29.9194 1153.00
29.9846 1579.00
30.0498 1720.00
30.115 1274.00
30.1802 960.00
30.2454 872.00
30.3106 877.00
30.3758 889.00
30.441 863.00
30.5062 884.00
30.5714 911.00
30.6366 907.00
30.7018 898.00
30.767 1037.00
30.8322 1123.00
30.8974 1622.00
30.9626 3087.00
31.0278 6348.00
31.093 6113.00
31.1582 3416.00
31.2234 1190.00
31.2886 992.00
31.3538 869.00
31.419 942.00
31.4842 827.00
31.5494 821.00
31.6146 843.00
31.6798 824.00
31.745 826.00
31.8102 743.00
31.8754 772.00
31.9406 811.00
32.0058 815.00
32.071 772.00
32.1362 772.00
32.2014 825.00
32.2666 819.00
32.3318 790.00
32.397 817.00
32.4622 823.00
32.5274 779.00
32.5926 737.00
32.6578 789.00
32.723 794.00
32.7882 838.00
32.8534 809.00
32.9186 788.00
32.9838 876.00
33.0489 840.00
33.1141 933.00
33.1793 887.00
33.2445 889.00
33.3097 937.00
33.3749 901.00
33.4401 964.00
33.5053 1064.00
33.5705 1091.00
33.6357 1093.00
33.7009 1327.00
33.7661 1468.00
33.8313 1675.00
33.8965 2051.00
33.9617 2768.00
34.0269 4317.00
34.0921 8031.00
34.1573 14429.00
34.2225 19134.00
34.2877 14474.00
34.3529 8941.00
34.4181 4638.00
34.4833 2566.00
34.5485 1865.00
34.6137 1498.00
34.6789 1208.00
34.7441 1086.00
34.8093 1001.00
34.8745 943.00
34.9397 990.00
35.0049 895.00
35.0701 863.00
35.1353 856.00
35.2005 821.00
35.2657 839.00
35.3309 792.00
35.3961 907.00
35.4613 953.00
35.5265 1261.00
35.5917 1159.00
35.6569 1025.00
35.7221 758.00
35.7873 752.00
35.8525 694.00
35.9177 744.00
35.9829 722.00
36.0481 663.00
36.1133 673.00
36.1785 731.00
36.2437 680.00
36.3089 677.00
36.3741 688.00
36.4393 675.00
36.5045 687.00
36.5697 669.00
36.6349 646.00
36.7001 656.00
36.7653 679.00
36.8305 662.00
36.8957 698.00
36.9609 701.00
37.0261 705.00
37.0913 689.00
37.1565 711.00
37.2217 665.00
37.2869 713.00
37.3521 691.00
37.4173 730.00
37.4825 683.00
37.5477 712.00
37.6129 707.00
37.6781 703.00
37.7433 785.00
37.8085 758.00
37.8736 866.00
37.9388 889.00
38.004 1024.00
38.0692 1385.00
38.1344 1904.00
38.1996 3354.00
38.2648 5414.00
38.33 4962.00
38.3952 3689.00
38.4604 2195.00
38.5256 1507.00
38.5908 1200.00
38.656 1118.00
38.7212 1468.00
38.7864 1787.00
38.8516 1314.00
38.9168 799.00
38.982 716.00
39.0472 767.00
39.1124 736.00
39.1776 958.00
39.2428 1225.00
39.308 1638.00
39.3732 1378.00
39.4384 1042.00
39.5036 817.00
39.5688 676.00
39.634 647.00
39.6992 607.00
39.7644 593.00
39.8296 581.00
39.8948 628.00
39.96 598.00
40.0252 563.00
40.0904 630.00
40.1556 581.00
40.2208 599.00
40.286 589.00
40.3512 624.00
40.4164 630.00
40.4816 576.00
40.5468 570.00
40.612 550.00
40.6772 584.00
40.7424 587.00
40.8076 539.00
40.8728 691.00
40.938 924.00
41.0032 728.00
41.0684 626.00
41.1336 581.00
41.1988 567.00
41.264 529.00
41.3292 558.00
41.3944 512.00
41.4596 607.00
41.5248 544.00
41.59 513.00
41.6552 507.00
41.7204 501.00
41.7856 536.00
41.8508 548.00
41.916 556.00
41.9812 511.00
42.0464 562.00
42.1116 510.00
42.1768 517.00
42.242 566.00
42.3072 491.00
42.3724 543.00
42.4376 584.00
42.5028 491.00
42.568 556.00
42.6332 527.00
42.6983 537.00
42.7635 587.00
42.8287 637.00
42.8939 731.00
42.9591 873.00
43.0243 800.00
43.0895 683.00
43.1547 554.00
43.2199 563.00
43.2851 499.00
43.3503 517.00
43.4155 482.00
43.4807 543.00
43.5459 479.00
43.6111 486.00
43.6763 519.00
43.7415 516.00
43.8067 527.00
43.8719 521.00
43.9371 528.00
44.0023 472.00
44.0675 507.00
44.1327 507.00
44.1979 509.00
44.2631 490.00
44.3283 481.00
44.3935 507.00
44.4587 476.00
44.5239 509.00
44.5891 520.00
44.6543 467.00
44.7195 505.00
44.7847 451.00
44.8499 504.00
44.9151 521.00
44.9803 494.00
45.0455 531.00
45.1107 497.00
45.1759 480.00
45.2411 519.00
45.3063 517.00
45.3715 518.00
45.4367 482.00
45.5019 536.00
45.5671 500.00
45.6323 450.00
45.6975 482.00
45.7627 471.00
45.8279 513.00
45.8931 542.00
45.9583 653.00
46.0235 1151.00
46.0887 1352.00
46.1539 932.00
46.2191 852.00
46.2843 561.00
46.3495 580.00
46.4147 537.00
46.4799 555.00
46.5451 593.00
46.6103 701.00
46.6755 1161.00
46.7407 2932.00
46.8059 4169.00
46.8711 2247.00
46.9363 1893.00
47.0015 727.00
47.0667 603.00
47.1319 576.00
47.1971 486.00
47.2623 496.00
47.3275 555.00
47.3927 519.00
47.4579 443.00
47.523 451.00
47.5882 492.00
47.6534 499.00
47.7186 464.00
47.7838 449.00
47.849 496.00
47.9142 631.00
47.9794 760.00
48.0446 632.00
48.1098 633.00
48.175 447.00
48.2402 471.00
48.3054 490.00
48.3706 509.00
48.4358 502.00
48.501 438.00
48.5662 465.00
48.6314 457.00
48.6966 453.00
48.7618 425.00
48.827 470.00
48.8922 425.00
48.9574 431.00
49.0226 486.00
49.0878 526.00
49.153 635.00
49.2182 513.00
49.2834 523.00
49.3486 455.00
49.4138 482.00
49.479 463.00
49.5442 441.00
49.6094 413.00
49.6746 411.00
49.7398 480.00
49.805 466.00
49.8702 444.00
49.9354 473.00
50.0006 490.00
50.0658 489.00
50.131 488.00
50.1962 468.00
50.2614 491.00
50.3266 538.00
50.3918 539.00
50.457 511.00
50.5222 533.00
50.5874 543.00
50.6526 559.00
50.7178 523.00
50.783 593.00
50.8482 549.00
50.9134 578.00
50.9786 492.00
51.0438 537.00
51.109 575.00
51.1742 577.00
51.2394 570.00
51.3046 596.00
51.3698 609.00
51.435 663.00
51.5002 768.00
51.5654 765.00
51.6306 920.00
51.6958 1214.00
51.761 1434.00
51.8262 1770.00
51.8914 2651.00
51.9566 4621.00
52.0218 9263.00
52.087 14717.00
52.1522 10846.00
52.2174 9551.00
52.2826 5671.00
52.3477 2841.00
52.4129 1899.00
52.4781 1288.00
52.5433 1187.00
52.6085 884.00
52.6737 849.00
52.7389 732.00
52.8041 621.00
52.8693 670.00
52.9345 626.00
52.9997 595.00
53.0649 563.00
53.1301 509.00
53.1953 548.00
53.2605 529.00
53.3257 534.00
53.3909 506.00
53.4561 527.00
53.5213 491.00
53.5865 493.00
53.6517 443.00
53.7169 510.00
53.7821 443.00
53.8473 511.00
53.9125 501.00
53.9777 436.00
54.0429 506.00
54.1081 520.00
54.1733 485.00
54.2385 541.00
54.3037 595.00
54.3689 514.00
54.4341 514.00
54.4993 497.00
54.5645 516.00
54.6297 577.00
54.6949 610.00
54.7601 730.00
54.8253 800.00
54.8905 1110.00
54.9557 1703.00
55.0209 3019.00
55.0861 3683.00
55.1513 2546.00
55.2165 2449.00
55.2817 1693.00
55.3469 1588.00
55.4121 1094.00
55.4773 919.00
55.5425 878.00
55.6077 595.00
55.6729 526.00
55.7381 496.00
55.8033 464.00
55.8685 460.00
55.9337 435.00
55.9989 469.00
56.0641 474.00
56.1293 457.00
56.1945 457.00
56.2597 457.00
56.3249 464.00
56.3901 454.00
56.4553 454.00
56.5205 458.00
56.5857 447.00
56.6509 464.00
56.7161 449.00
56.7813 401.00
56.8465 483.00
56.9117 411.00
56.9769 424.00
57.042 452.00
57.1073 417.00
57.1724 424.00
57.2376 425.00
57.3028 419.00
57.368 441.00
57.4332 424.00
57.4984 425.00
57.5636 453.00
57.6288 460.00
57.694 467.00
57.7592 505.00
57.8244 591.00
57.8896 627.00
57.9548 753.00
58.02 1006.00
58.0852 1544.00
58.1504 1653.00
58.2156 1440.00
58.2808 1291.00
58.346 1010.00
58.4112 711.00
58.4764 622.00
58.5416 575.00
58.6068 641.00
58.672 1014.00
58.7372 724.00
58.8024 662.00
58.8676 748.00
58.9328 524.00
58.998 636.00
59.0632 862.00
59.1284 1169.00
59.1936 634.00
59.2588 801.00
59.324 549.00
59.3892 405.00
59.4544 428.00
59.5196 446.00
59.5848 449.00
59.65 405.00
59.7152 389.00
59.7804 401.00
59.8456 401.00
59.9108 414.00
59.976 408.00
60.0412 464.00
60.1064 586.00
60.1716 486.00
60.2368 466.00
60.302 520.00
60.3672 410.00
60.4324 416.00
60.4976 441.00
60.5628 433.00
60.628 377.00
60.6932 437.00
60.7584 432.00
60.8236 393.00
60.8888 392.00
60.954 410.00
61.0192 411.00
61.0844 441.00
61.1496 441.00
61.2148 420.00
61.28 416.00
61.3452 402.00
61.4104 413.00
61.4756 414.00
61.5408 443.00
61.606 445.00
61.6712 478.00
61.7364 474.00
61.8016 555.00
61.8667 675.00
61.932 785.00
61.9971 911.00
62.0623 1437.00
62.1275 2454.00
62.1927 3150.00
62.2579 2236.00
62.3231 2067.00
62.3883 1747.00
62.4535 1056.00
62.5187 765.00
62.5839 605.00
62.6491 581.00
62.7143 529.00
62.7795 469.00
62.8447 463.00
62.9099 482.00
62.9751 457.00
63.0403 385.00
63.1055 437.00
63.1707 454.00
63.2359 367.00
63.3011 374.00
63.3663 442.00
63.4315 383.00
63.4967 443.00
63.5619 395.00
63.6271 457.00
63.6923 447.00
63.7575 434.00
63.8227 458.00
63.8879 528.00
63.9531 462.00
64.0183 455.00
64.0835 541.00
64.1487 498.00
64.2139 740.00
64.2791 1053.00
64.3443 600.00
64.4095 651.00
64.4747 727.00
64.5399 587.00
64.6051 561.00
64.6703 654.00
64.7355 732.00
64.8007 858.00
64.8659 1109.00
64.9311 1760.00
64.9963 2814.00
65.0615 2757.00
65.1267 2087.00
65.1919 2148.00
65.2571 1595.00
65.3223 1066.00
65.3875 763.00
65.4527 612.00
65.5179 592.00
65.5831 571.00
65.6483 551.00
65.7135 542.00
65.7787 523.00
65.8439 628.00
65.9091 704.00
65.9743 822.00
66.0395 905.00
66.1047 1327.00
66.1699 2223.00
66.2351 3618.00
66.3003 3244.00
66.3655 2332.00
66.4307 2504.00
66.4959 1852.00
66.561 1058.00
66.6263 839.00
66.6915 592.00
66.7566 533.00
66.8218 544.00
66.887 490.00
66.9522 496.00
67.0174 473.00
67.0826 432.00
67.1478 438.00
67.213 391.00
67.2782 406.00
67.3434 397.00
67.4086 396.00
67.4738 394.00
67.539 394.00
67.6042 339.00
67.6694 350.00
67.7346 363.00
67.7998 373.00
67.865 340.00
67.9302 380.00
67.9954 371.00
68.0606 365.00
68.1258 359.00
68.191 383.00
68.2562 367.00
68.3214 355.00
68.3866 352.00
68.4518 366.00
68.517 356.00
68.5822 373.00
68.6474 367.00
68.7126 361.00
68.7778 384.00
68.843 356.00
68.9082 357.00
68.9734 351.00
69.0386 391.00
69.1038 358.00
69.169 366.00
69.2342 380.00
69.2994 387.00
69.3646 354.00
69.4298 396.00
69.495 435.00
69.5602 424.00
69.6254 395.00
69.6906 418.00
69.7558 383.00
69.821 429.00
69.8862 525.00
69.9514 1037.00
70.0166 818.00
70.0818 507.00
70.147 678.00
70.2122 650.00
70.2774 436.00
70.3426 334.00
70.4078 376.00
70.473 345.00
70.5382 412.00
70.6034 378.00
70.6686 363.00
70.7338 370.00
70.799 343.00
70.8642 373.00
70.9294 362.00
70.9946 420.00
71.0598 404.00
71.125 448.00
71.1902 483.00
71.2554 510.00
71.3205 520.00
71.3858 610.00
71.451 921.00
71.5162 1487.00
71.5813 1697.00
71.6465 1139.00
71.7117 1053.00
71.7769 1237.00
71.8421 1156.00
71.9073 662.00
71.9725 540.00
72.0377 589.00
72.1029 482.00
72.1681 400.00
72.2333 412.00
72.2985 375.00
72.3637 348.00
72.4289 362.00
72.4941 377.00
72.5593 386.00
72.6245 378.00
72.6897 340.00
72.7549 326.00
72.8201 311.00
72.8853 333.00
72.9505 379.00
73.0157 364.00
73.0809 315.00
73.1461 378.00
73.2113 342.00
73.2765 278.00
73.3417 369.00
73.4069 307.00
73.4721 337.00
73.5373 334.00
73.6025 335.00
73.6677 318.00
73.7329 356.00
73.7981 403.00
73.8633 352.00
73.9285 344.00
73.9937 364.00
74.0589 323.00
74.1241 343.00
74.1893 370.00
74.2545 336.00
74.3197 325.00
74.3849 386.00
74.4501 371.00
74.5153 376.00
74.5805 391.00
74.6457 487.00
74.7109 868.00
74.7761 674.00
74.8413 434.00
74.9065 508.00
74.9717 621.00
75.0369 403.00
75.1021 386.00
75.1673 339.00
75.2325 353.00
75.2977 363.00
75.3629 341.00
75.4281 333.00
75.4933 298.00
75.5585 302.00
75.6237 344.00
75.6889 340.00
75.7541 349.00
75.8193 318.00
75.8845 350.00
75.9497 336.00
76.0149 379.00
76.0801 336.00
76.1452 347.00
76.2104 366.00
76.2756 368.00
76.3409 345.00
76.406 310.00
76.4712 333.00
76.5364 363.00
76.6016 316.00
76.6668 336.00
76.732 316.00
76.7972 358.00
76.8624 419.00
76.9276 466.00
76.9928 374.00
77.058 343.00
77.1232 354.00
77.1884 336.00
77.2536 335.00
77.3188 328.00
77.384 366.00
77.4492 329.00
77.5144 333.00
77.5796 319.00
77.6448 361.00
77.71 334.00
77.7752 367.00
77.8404 372.00
77.9056 347.00
77.9708 326.00
78.036 359.00
78.1012 334.00
78.1664 340.00
78.2316 367.00
78.2968 358.00
78.362 385.00
78.4272 378.00
78.4924 442.00
78.5576 468.00
78.6228 514.00
78.688 562.00
78.7532 651.00
78.8184 966.00
78.8836 1448.00
78.9488 2301.00
79.014 2129.00
79.0792 1492.00
79.1444 1377.00
79.2096 1577.00
79.2748 1109.00
79.34 771.00
79.4052 598.00
79.4704 521.00
79.5356 481.00
79.6008 509.00
79.666 558.00
79.7312 890.00
79.7964 660.00
79.8616 458.00
79.9268 481.00
79.992 668.00
80.0572 626.00
80.1224 832.00
80.1876 511.00
80.2528 404.00
80.318 509.00
80.3832 559.00
80.4484 376.00
80.5136 383.00
80.5788 351.00
80.644 366.00
80.7092 336.00
80.7744 364.00
80.8396 345.00
80.9048 400.00
80.9699 393.00
81.0351 377.00
81.1003 405.00
81.1655 443.00
81.2307 497.00
81.2959 615.00
81.3611 889.00
81.4263 882.00
81.4915 735.00
81.5567 669.00
81.6219 741.00
81.6871 634.00
81.7523 514.00
81.8175 480.00
81.8827 725.00
81.9479 480.00
82.0131 384.00
82.0783 447.00
82.1435 494.00
82.2087 400.00
82.2739 316.00
82.3391 350.00
82.4043 323.00
82.4695 309.00
82.5347 377.00
82.5999 401.00
82.6651 351.00
82.7303 324.00
82.7955 365.00
82.8607 365.00
82.9259 309.00
82.9911 315.00
83.0563 325.00
83.1215 322.00
83.1867 281.00
83.2519 370.00
83.3171 315.00
83.3823 331.00
83.4475 398.00
83.5127 401.00
83.5779 440.00
83.6431 423.00
83.7083 493.00
83.7735 595.00
83.8387 793.00
83.9039 1324.00
83.9691 1842.00
84.0343 1300.00
84.0995 992.00
84.1647 1003.00
84.2299 1130.00
84.2951 852.00
84.3603 634.00
84.4255 503.00
84.4907 434.00
84.5559 417.00
84.6211 424.00
84.6863 326.00
84.7515 361.00
84.8167 386.00
84.8819 326.00
84.9471 325.00
85.0123 372.00
85.0775 312.00
85.1427 326.00
85.2079 338.00
85.2731 320.00
85.3383 297.00
85.4035 321.00
85.4687 302.00
85.5339 325.00
85.5991 331.00
85.6643 405.00
85.7295 520.00
85.7946 375.00
85.8598 340.00
85.925 349.00
85.9903 433.00
86.0554 382.00
86.1206 354.00
86.1858 325.00
86.251 291.00
86.3162 289.00
86.3814 307.00
86.4466 313.00
86.5118 294.00
86.577 330.00
86.6422 324.00
86.7074 304.00
86.7726 280.00
86.8378 321.00
86.903 302.00
86.9682 365.00
87.0334 363.00
87.0986 368.00
87.1638 344.00
87.229 390.00
87.2942 461.00
87.3594 566.00
87.4246 815.00
87.4898 946.00
87.555 709.00
87.6202 602.00
87.6854 594.00
87.7506 692.00
87.8158 539.00
87.881 448.00
87.9462 413.00
88.0114 376.00
88.0766 343.00
88.1418 361.00
88.207 341.00
88.2722 324.00
88.3374 297.00
88.4026 345.00
88.4678 334.00
88.533 335.00
88.5982 357.00
88.6634 337.00
88.7286 352.00
88.7938 339.00
88.859 348.00
88.9242 364.00
88.9894 314.00
89.0546 336.00
89.1198 320.00
89.185 368.00
89.2502 343.00
89.3154 392.00
89.3806 362.00
89.4458 411.00
89.511 415.00
89.5762 479.00
89.6414 453.00
89.7066 534.00
89.7718 567.00
89.837 739.00
89.9022 995.00
89.9674 1531.00
90.0326 1865.00
90.0978 1408.00
90.163 1129.00
90.2282 1078.00
90.2934 1255.00
90.3586 1043.00
90.4238 825.00
90.489 610.00
90.5542 573.00
90.6193 526.00
90.6845 498.00
90.7497 529.00
90.8149 566.00
90.8801 612.00
90.9453 739.00
91.0105 1067.00
91.0757 1484.00
91.1409 2004.00
91.2061 1623.00
91.2713 1150.00
91.3365 1078.00
91.4017 1190.00
91.4669 1161.00
91.5321 889.00
91.5973 562.00
91.6625 506.00
91.7277 433.00
91.7929 392.00
91.8581 393.00
91.9233 368.00
91.9885 390.00
92.0537 348.00
92.1189 362.00
92.1841 353.00
92.2493 344.00
92.3145 351.00
92.3797 347.00
92.4449 319.00
92.5101 317.00
92.5753 357.00
92.6405 336.00
92.7057 310.00
92.7709 316.00
92.8361 340.00
92.9013 338.00
92.9665 327.00
93.0317 362.00
93.0969 362.00
93.1621 373.00
93.2273 393.00
93.2925 409.00
93.3577 569.00
93.4229 666.00
93.4881 1025.00
93.5533 1078.00
93.6185 789.00
93.6837 659.00
93.7489 695.00
93.8141 754.00
93.8793 652.00
93.9445 511.00
94.0097 394.00
94.0749 389.00
94.1401 377.00
94.2053 339.00
94.2705 314.00
94.3357 367.00
94.4009 340.00
94.4661 379.00
94.5313 382.00
94.5965 371.00
94.6617 327.00
94.7269 336.00
94.7921 392.00
94.8573 330.00
94.9225 338.00
94.9877 320.00
95.0529 316.00
95.1181 343.00
95.1833 348.00
95.2485 321.00
95.3137 317.00
95.3789 353.00
95.444 474.00
95.5092 589.00
95.5744 434.00
95.6396 349.00
95.7048 374.00
95.77 475.00
95.8352 539.00
95.9004 382.00
95.9656 372.00
96.0308 483.00
96.096 598.00
96.1612 758.00
96.2264 907.00
96.2916 875.00
96.3568 696.00
96.422 633.00
96.4872 675.00
96.5524 757.00
96.6176 673.00
96.6828 476.00
96.748 436.00
96.8132 421.00
96.8784 428.00
96.9436 448.00
97.0088 366.00
97.074 355.00
97.1392 333.00
97.2044 374.00
97.2696 328.00
97.3348 325.00
97.4 318.00
97.4652 324.00
97.5304 312.00
97.5956 297.00
97.6608 316.00
97.726 301.00
97.7912 306.00
97.8564 303.00
97.9216 286.00
97.9868 323.00
98.052 283.00
98.1172 317.00
98.1824 296.00
98.2476 300.00
98.3128 282.00
98.378 339.00
98.4432 308.00
98.5084 316.00
98.5736 306.00
98.6388 347.00
98.704 293.00
98.7692 290.00
98.8344 270.00
98.8996 273.00
98.9648 303.00
99.03 309.00
99.0952 351.00
99.1604 305.00
99.2256 329.00
99.2908 351.00
99.356 451.00
99.4212 382.00
99.4864 384.00
99.5516 338.00
99.6168 356.00
99.682 497.00
99.7472 709.00
99.8124 451.00
99.8776 320.00
99.9428 342.00
100.008 390.00
100.073 437.00
100.095 468.00