File: data/xrd_creation/results/PG_2135-1.xy
9.903433 2653.00
9.968632 2485.00
10.0338 2544.00
10.099 2391.00
10.1642 2531.00
10.2294 2456.00
10.2946 2480.00
10.3598 2438.00
10.425 2469.00
10.4902 2392.00
10.5554 2399.00
10.6206 2406.00
10.6858 2316.00
10.751 2265.00
10.8162 2286.00
10.8814 2383.00
10.9466 2313.00
11.0118 2262.00
11.077 2251.00
11.1422 2272.00
11.2074 2200.00
11.2726 2180.00
11.3378 2168.00
11.403 2225.00
11.4682 2206.00
11.5334 2096.00
11.5986 2239.00
11.6638 2102.00
11.729 2118.00
11.7942 2020.00
11.8594 2007.00
11.9246 2111.00
11.9898 2069.00
12.055 1976.00
12.1202 1986.00
12.1854 2126.00
12.2506 1955.00
12.3158 1959.00
12.381 1884.00
12.4462 1991.00
12.5114 1891.00
12.5766 1964.00
12.6418 1932.00
12.707 1855.00
12.7722 2012.00
12.8374 1907.00
12.9026 1857.00
12.9678 1856.00
13.033 1822.00
13.0982 1780.00
13.1634 1773.00
13.2286 1762.00
13.2938 1780.00
13.359 1852.00
13.4242 1785.00
13.4894 1814.00
13.5546 1772.00
13.6198 1807.00
13.685 1718.00
13.7502 1772.00
13.8154 1705.00
13.8805 1787.00
13.9457 1637.00
14.0109 1696.00
14.0761 1800.00
14.1413 1695.00
14.2065 1637.00
14.2717 1717.00
14.3369 1761.00
14.4021 1744.00
14.4673 1690.00
14.5325 1674.00
14.5977 1679.00
14.6629 1732.00
14.7281 1636.00
14.7933 1711.00
14.8585 1642.00
14.9237 1622.00
14.9889 1695.00
15.0541 1709.00
15.1193 1739.00
15.1845 1689.00
15.2497 1659.00
15.3149 1830.00
15.3801 1982.00
15.4453 2001.00
15.5105 2177.00
15.5757 2396.00
15.6409 2835.00
15.7061 3518.00
15.7713 4623.00
15.8365 6443.00
15.9017 8409.00
15.9669 10220.00
16.0321 8295.00
16.0973 5079.00
16.1625 3355.00
16.2277 2660.00
16.2929 2105.00
16.3581 2032.00
16.4233 1987.00
16.4885 1762.00
16.5537 1635.00
16.6189 1653.00
16.6841 1581.00
16.7493 1579.00
16.8145 1636.00
16.8797 1515.00
16.9449 1557.00
17.0101 1681.00
17.0753 1509.00
17.1405 1466.00
17.2057 1548.00
17.2709 1510.00
17.3361 1494.00
17.4013 1525.00
17.4665 1523.00
17.5317 1444.00
17.5969 1458.00
17.6621 1482.00
17.7273 1489.00
17.7925 1483.00
17.8577 1471.00
17.9229 1399.00
17.9881 1430.00
18.0533 1343.00
18.1185 1440.00
18.1837 1437.00
18.2489 1369.00
18.3141 1449.00
18.3793 1355.00
18.4445 1359.00
18.5097 1346.00
18.5749 1351.00
18.6401 1314.00
18.7052 1248.00
18.7704 1317.00
18.8356 1356.00
18.9008 1351.00
18.966 1264.00
19.0312 1292.00
19.0964 1311.00
19.1616 1240.00
19.2268 1266.00
19.292 1305.00
19.3572 1210.00
19.4224 1312.00
19.4876 1253.00
19.5528 1255.00
19.618 1295.00
19.6832 1260.00
19.7484 1253.00
19.8136 1232.00
19.8788 1252.00
19.944 1272.00
20.0092 1242.00
20.0744 1155.00
20.1396 1268.00
20.2048 1166.00
20.27 1225.00
20.3352 1204.00
20.4004 1125.00
20.4656 1198.00
20.5308 1170.00
20.596 1179.00
20.6612 1168.00
20.7264 1167.00
20.7916 1217.00
20.8568 1205.00
20.922 1202.00
20.9872 1168.00
21.0524 1145.00
21.1176 1114.00
21.1828 1139.00
21.248 1152.00
21.3132 1149.00
21.3784 1134.00
21.4436 1210.00
21.5088 1090.00
21.574 1106.00
21.6392 1133.00
21.7044 1132.00
21.7696 1185.00
21.8348 1105.00
21.9 1111.00
21.9652 1046.00
22.0304 1164.00
22.0956 1116.00
22.1608 1047.00
22.226 1039.00
22.2912 1091.00
22.3564 1064.00
22.4216 1072.00
22.4868 1080.00
22.552 1099.00
22.6172 1075.00
22.6824 1055.00
22.7476 1036.00
22.8128 1024.00
22.878 1057.00
22.9432 1043.00
23.0084 1066.00
23.0736 1001.00
23.1388 1048.00
23.204 1014.00
23.2692 1008.00
23.3344 993.00
23.3996 969.00
23.4647 992.00
23.5299 1042.00
23.5951 997.00
23.6603 1035.00
23.7255 1064.00
23.7907 1008.00
23.8559 966.00
23.9211 1011.00
23.9863 992.00
24.0515 1000.00
24.1167 1014.00
24.1819 996.00
24.2471 991.00
24.3123 968.00
24.3775 906.00
24.4427 1005.00
24.5079 1003.00
24.5731 886.00
24.6383 943.00
24.7035 892.00
24.7687 891.00
24.8339 991.00
24.8991 997.00
24.9643 993.00
25.0295 984.00
25.0947 928.00
25.1599 1011.00
25.2251 907.00
25.2903 904.00
25.3555 985.00
25.4207 918.00
25.4859 997.00
25.5511 925.00
25.6163 925.00
25.6815 939.00
25.7467 916.00
25.8119 929.00
25.8771 830.00
25.9423 932.00
26.0075 888.00
26.0727 886.00
26.1379 886.00
26.2031 891.00
26.2683 941.00
26.3335 957.00
26.3987 967.00
26.4639 985.00
26.5291 924.00
26.5943 913.00
26.6595 970.00
26.7247 957.00
26.7899 1030.00
26.8551 1015.00
26.9203 1084.00
26.9855 1070.00
27.0507 1180.00
27.1159 1297.00
27.1811 1432.00
27.2463 1615.00
27.3115 2142.00
27.3767 3032.00
27.4419 4325.00
27.5071 6416.00
27.5723 8426.00
27.6375 7993.00
27.7027 5950.00
27.7679 4040.00
27.8331 2985.00
27.8983 2517.00
27.9635 2575.00
28.0287 3035.00
28.0939 4216.00
28.1591 6533.00
28.2243 9418.00
28.2894 11914.00
28.3546 10210.00
28.4198 6829.00
28.485 4075.00
28.5502 2609.00
28.6154 2008.00
28.6806 1574.00
28.7458 1422.00
28.811 1250.00
28.8762 1091.00
28.9414 1029.00
29.0066 990.00
29.0718 926.00
29.137 948.00
29.2022 919.00
29.2674 868.00
29.3326 886.00
29.3978 895.00
29.463 869.00
29.5282 846.00
29.5934 875.00
29.6586 838.00
29.7238 839.00
29.789 860.00
29.8542 852.00
29.9194 826.00
29.9846 862.00
30.0498 825.00
30.115 794.00
30.1802 796.00
30.2454 808.00
30.3106 905.00
30.3758 1064.00
30.441 1315.00
30.5062 1231.00
30.5714 957.00
30.6366 802.00
30.7018 758.00
30.767 822.00
30.8322 845.00
30.8974 770.00
30.9626 776.00
31.0278 801.00
31.093 831.00
31.1582 834.00
31.2234 762.00
31.2886 806.00
31.3538 847.00
31.419 863.00
31.4842 837.00
31.5494 913.00
31.6146 1031.00
31.6798 1161.00
31.745 1453.00
31.8102 1944.00
31.8754 2374.00
31.9406 2444.00
32.0058 2062.00
32.071 1520.00
32.1362 1247.00
32.2014 1018.00
32.2666 863.00
32.3318 781.00
32.397 808.00
32.4622 780.00
32.5274 718.00
32.5926 700.00
32.6578 749.00
32.723 669.00
32.7882 645.00
32.8534 735.00
32.9186 679.00
32.9838 683.00
33.0489 719.00
33.1141 717.00
33.1793 653.00
33.2445 682.00
33.3097 747.00
33.3749 742.00
33.4401 679.00
33.5053 686.00
33.5705 715.00
33.6357 640.00
33.7009 657.00
33.7661 640.00
33.8313 627.00
33.8965 659.00
33.9617 638.00
34.0269 604.00
34.0921 602.00
34.1573 623.00
34.2225 618.00
34.2877 685.00
34.3529 693.00
34.4181 743.00
34.4833 802.00
34.5485 760.00
34.6137 743.00
34.6789 667.00
34.7441 759.00
34.8093 806.00
34.8745 757.00
34.9397 766.00
35.0049 658.00
35.0701 673.00
35.1353 591.00
35.2005 601.00
35.2657 562.00
35.3309 632.00
35.3961 678.00
35.4613 747.00
35.5265 945.00
35.5917 969.00
35.6569 804.00
35.7221 723.00
35.7873 665.00
35.8525 659.00
35.9177 698.00
35.9829 647.00
36.0481 691.00
36.1133 790.00
36.1785 1039.00
36.2437 1116.00
36.3089 1310.00
36.3741 1280.00
36.4393 1024.00
36.5045 875.00
36.5697 705.00
36.6349 683.00
36.7001 624.00
36.7653 580.00
36.8305 604.00
36.8957 592.00
36.9609 558.00
37.0261 563.00
37.0913 550.00
37.1565 628.00
37.2217 568.00
37.2869 604.00
37.3521 559.00
37.4173 580.00
37.4825 537.00
37.5477 508.00
37.6129 589.00
37.6781 630.00
37.7433 540.00
37.8085 606.00
37.8736 549.00
37.9388 575.00
38.004 562.00
38.0692 612.00
38.1344 680.00
38.1996 788.00
38.2648 940.00
38.33 1083.00
38.3952 940.00
38.4604 849.00
38.5256 689.00
38.5908 689.00
38.656 651.00
38.7212 621.00
38.7864 715.00
38.8516 736.00
38.9168 691.00
38.982 714.00
39.0472 745.00
39.1124 775.00
39.1776 791.00
39.2428 879.00
39.308 1002.00
39.3732 1157.00
39.4384 1471.00
39.5036 1945.00
39.5688 2911.00
39.634 4160.00
39.6992 6057.00
39.7644 7452.00
39.8296 7347.00
39.8948 5912.00
39.96 4080.00
40.0252 2744.00
40.0904 1910.00
40.1556 1585.00
40.2208 1335.00
40.286 1259.00
40.3512 1031.00
40.4164 864.00
40.4816 793.00
40.5468 662.00
40.612 635.00
40.6772 684.00
40.7424 638.00
40.8076 639.00
40.8728 591.00
40.938 584.00
41.0032 609.00
41.0684 568.00
41.1336 543.00
41.1988 598.00
41.264 593.00
41.3292 591.00
41.3944 703.00
41.4596 748.00
41.5248 657.00
41.59 608.00
41.6552 626.00
41.7204 672.00
41.7856 795.00
41.8508 690.00
41.916 675.00
41.9812 593.00
42.0464 652.00
42.1116 635.00
42.1768 707.00
42.242 772.00
42.3072 891.00
42.3724 1161.00
42.4376 1423.00
42.5028 1639.00
42.568 1659.00
42.6332 1585.00
42.6983 1250.00
42.7635 1073.00
42.8287 841.00
42.8939 735.00
42.9591 663.00
43.0243 628.00
43.0895 610.00
43.1547 535.00
43.2199 534.00
43.2851 535.00
43.3503 547.00
43.4155 482.00
43.4807 585.00
43.5459 490.00
43.6111 509.00
43.6763 493.00
43.7415 476.00
43.8067 466.00
43.8719 499.00
43.9371 507.00
44.0023 525.00
44.0675 465.00
44.1327 503.00
44.1979 549.00
44.2631 477.00
44.3283 475.00
44.3935 473.00
44.4587 476.00
44.5239 453.00
44.5891 485.00
44.6543 518.00
44.7195 494.00
44.7847 528.00
44.8499 498.00
44.9151 482.00
44.9803 494.00
45.0455 459.00
45.1107 405.00
45.1759 459.00
45.2411 481.00
45.3063 461.00
45.3715 472.00
45.4367 445.00
45.5019 453.00
45.5671 527.00
45.6323 493.00
45.6975 447.00
45.7627 433.00
45.8279 421.00
45.8931 465.00
45.9583 514.00
46.0235 491.00
46.0887 476.00
46.1539 504.00
46.2191 517.00
46.2843 448.00
46.3495 473.00
46.4147 516.00
46.4799 525.00
46.5451 488.00
46.6103 520.00
46.6755 537.00
46.7407 605.00
46.8059 622.00
46.8711 668.00
46.9363 672.00
47.0015 640.00
47.0667 669.00
47.1319 740.00
47.1971 918.00
47.2623 1105.00
47.3275 1597.00
47.3927 1740.00
47.4579 1652.00
47.523 1427.00
47.5882 1064.00
47.6534 913.00
47.7186 833.00
47.7838 775.00
47.849 699.00
47.9142 766.00
47.9794 750.00
48.0446 865.00
48.1098 936.00
48.175 1026.00
48.2402 1350.00
48.3054 1668.00
48.3706 2127.00
48.4358 2706.00
48.501 3301.00
48.5662 3526.00
48.6314 3396.00
48.6966 3486.00
48.7618 3894.00
48.827 4676.00
48.8922 5765.00
48.9574 5994.00
49.0226 5581.00
49.0878 4485.00
49.153 3339.00
49.2182 2419.00
49.2834 1841.00
49.3486 1341.00
49.4138 1093.00
49.479 976.00
49.5442 833.00
49.6094 792.00
49.6746 698.00
49.7398 682.00
49.805 611.00
49.8702 713.00
49.9354 661.00
50.0006 787.00
50.0658 882.00
50.131 1165.00
50.1962 1256.00
50.2614 1218.00
50.3266 1200.00
50.3918 979.00
50.457 827.00
50.5222 659.00
50.5874 594.00
50.6526 569.00
50.7178 574.00
50.783 531.00
50.8482 491.00
50.9134 476.00
50.9786 428.00
51.0438 459.00
51.109 478.00
51.1742 453.00
51.2394 456.00
51.3046 426.00
51.3698 419.00
51.435 384.00
51.5002 442.00
51.5654 440.00
51.6306 439.00
51.6958 399.00
51.761 469.00
51.8262 380.00
51.8914 394.00
51.9566 422.00
52.0218 433.00
52.087 409.00
52.1522 465.00
52.2174 378.00
52.2826 446.00
52.3477 430.00
52.4129 412.00
52.4781 425.00
52.5433 397.00
52.6085 418.00
52.6737 387.00
52.7389 433.00
52.8041 401.00
52.8693 421.00
52.9345 429.00
52.9997 373.00
53.0649 416.00
53.1301 394.00
53.1953 386.00
53.2605 402.00
53.3257 385.00
53.3909 389.00
53.4561 410.00
53.5213 445.00
53.5865 439.00
53.6517 407.00
53.7169 415.00
53.7821 409.00
53.8473 500.00
53.9125 480.00
53.9777 436.00
54.0429 418.00
54.1081 396.00
54.1733 433.00
54.2385 403.00
54.3037 390.00
54.3689 445.00
54.4341 390.00
54.4993 400.00
54.5645 422.00
54.6297 407.00
54.6949 430.00
54.7601 489.00
54.8253 458.00
54.8905 503.00
54.9557 505.00
55.0209 490.00
55.0861 573.00
55.1513 588.00
55.2165 659.00
55.2817 779.00
55.3469 983.00
55.4121 1248.00
55.4773 1649.00
55.5425 1980.00
55.6077 1893.00
55.6729 1857.00
55.7381 1496.00
55.8033 1169.00
55.8685 929.00
55.9337 790.00
55.9989 707.00
56.0641 603.00
56.1293 644.00
56.1945 576.00
56.2597 692.00
56.3249 705.00
56.3901 857.00
56.4553 973.00
56.5205 1212.00
56.5857 1241.00
56.6509 1196.00
56.7161 969.00
56.7813 883.00
56.8465 737.00
56.9117 662.00
56.9769 574.00
57.042 520.00
57.1073 496.00
57.1724 449.00
57.2376 417.00
57.3028 411.00
57.368 474.00
57.4332 465.00
57.4984 382.00
57.5636 425.00
57.6288 430.00
57.694 456.00
57.7592 440.00
57.8244 472.00
57.8896 617.00
57.9548 611.00
58.02 721.00
58.0852 789.00
58.1504 747.00
58.2156 721.00
58.2808 682.00
58.346 592.00
58.4112 538.00
58.4764 495.00
58.5416 474.00
58.6068 475.00
58.672 524.00
58.7372 503.00
58.8024 548.00
58.8676 586.00
58.9328 627.00
58.998 730.00
59.0632 732.00
59.1284 735.00
59.1936 732.00
59.2588 655.00
59.324 613.00
59.3892 585.00
59.4544 497.00
59.5196 480.00
59.5848 394.00
59.65 410.00
59.7152 381.00
59.7804 374.00
59.8456 352.00
59.9108 348.00
59.976 347.00
60.0412 351.00
60.1064 355.00
60.1716 368.00
60.2368 345.00
60.302 377.00
60.3672 335.00
60.4324 319.00
60.4976 329.00
60.5628 303.00
60.628 357.00
60.6932 367.00
60.7584 357.00
60.8236 356.00
60.8888 356.00
60.954 343.00
61.0192 353.00
61.0844 330.00
61.1496 350.00
61.2148 327.00
61.28 292.00
61.3452 301.00
61.4104 340.00
61.4756 325.00
61.5408 346.00
61.606 332.00
61.6712 366.00
61.7364 330.00
61.8016 331.00
61.8667 372.00
61.932 322.00
61.9971 305.00
62.0623 364.00
62.1275 338.00
62.1927 354.00
62.2579 348.00
62.3231 341.00
62.3883 366.00
62.4535 394.00
62.5187 316.00
62.5839 352.00
62.6491 348.00
62.7143 401.00
62.7795 341.00
62.8447 403.00
62.9099 398.00
62.9751 383.00
63.0403 375.00
63.1055 374.00
63.1707 355.00
63.2359 359.00
63.3011 378.00
63.3663 347.00
63.4315 397.00
63.4967 355.00
63.5619 389.00
63.6271 451.00
63.6923 440.00
63.7575 502.00
63.8227 550.00
63.8879 621.00
63.9531 715.00
64.0183 803.00
64.0835 1027.00
64.1487 1212.00
64.2139 1376.00
64.2791 1608.00
64.3443 1527.00
64.4095 1398.00
64.4747 1248.00
64.5399 1106.00
64.6051 896.00
64.6703 739.00
64.7355 681.00
64.8007 622.00
64.8659 556.00
64.9311 534.00
64.9963 529.00
65.0615 552.00
65.1267 572.00
65.1919 614.00
65.2571 744.00
65.3223 760.00
65.3875 778.00
65.4527 746.00
65.5179 751.00
65.5831 654.00
65.6483 582.00
65.7135 544.00
65.7787 447.00
65.8439 516.00
65.9091 438.00
65.9743 424.00
66.0395 476.00
66.1047 466.00
66.1699 516.00
66.2351 444.00
66.3003 517.00
66.3655 460.00
66.4307 471.00
66.4959 464.00
66.561 438.00
66.6263 419.00
66.6915 376.00
66.7566 327.00
66.8218 371.00
66.887 383.00
66.9522 335.00
67.0174 319.00
67.0826 340.00
67.1478 317.00
67.213 330.00
67.2782 354.00
67.3434 320.00
67.4086 309.00
67.4738 290.00
67.539 335.00
67.6042 347.00
67.6694 359.00
67.7346 338.00
67.7998 364.00
67.865 355.00
67.9302 324.00
67.9954 316.00
68.0606 329.00
68.1258 319.00
68.191 331.00
68.2562 307.00
68.3214 343.00
68.3866 337.00
68.4518 316.00
68.517 339.00
68.5822 372.00
68.6474 278.00
68.7126 331.00
68.7778 325.00
68.843 308.00
68.9082 318.00
68.9734 344.00
69.0386 350.00
69.1038 362.00
69.169 387.00
69.2342 381.00
69.2994 336.00
69.3646 399.00
69.4298 439.00
69.495 506.00
69.5602 522.00
69.6254 614.00
69.6906 714.00
69.7558 839.00
69.821 945.00
69.8862 1138.00
69.9514 1279.00
70.0166 1220.00
70.0818 1185.00
70.147 1021.00
70.2122 911.00
70.2774 761.00
70.3426 695.00
70.4078 549.00
70.473 517.00
70.5382 484.00
70.6034 424.00
70.6686 437.00
70.7338 450.00
70.799 450.00
70.8642 416.00
70.9294 477.00
70.9946 506.00
71.0598 582.00
71.125 644.00
71.1902 628.00
71.2554 681.00
71.3205 569.00
71.3858 544.00
71.451 496.00
71.5162 463.00
71.5813 393.00
71.6465 412.00
71.7117 365.00
71.7769 387.00
71.8421 366.00
71.9073 353.00
71.9725 353.00
72.0377 331.00
72.1029 317.00
72.1681 363.00
72.2333 343.00
72.2985 333.00
72.3637 336.00
72.4289 349.00
72.4941 328.00
72.5593 353.00
72.6245 361.00
72.6897 337.00
72.7549 385.00
72.8201 383.00
72.8853 432.00
72.9505 423.00
73.0157 425.00
73.0809 465.00
73.1461 457.00
73.2113 410.00
73.2765 437.00
73.3417 415.00
73.4069 386.00
73.4721 400.00
73.5373 344.00
73.6025 357.00
73.6677 356.00
73.7329 357.00
73.7981 345.00
73.8633 307.00
73.9285 350.00
73.9937 300.00
74.0589 323.00
74.1241 353.00
74.1893 280.00
74.2545 338.00
74.3197 318.00
74.3849 270.00
74.4501 309.00
74.5153 320.00
74.5805 290.00
74.6457 308.00
74.7109 311.00
74.7761 350.00
74.8413 341.00
74.9065 338.00
74.9717 345.00
75.0369 305.00
75.1021 339.00
75.1673 349.00
75.2325 315.00
75.2977 345.00
75.3629 325.00
75.4281 377.00
75.4933 361.00
75.5585 352.00
75.6237 386.00
75.6889 403.00
75.7541 475.00
75.8193 490.00
75.8845 559.00
75.9497 638.00
76.0149 673.00
76.0801 801.00
76.1452 819.00
76.2104 780.00
76.2756 793.00
76.3409 783.00
76.406 800.00
76.4712 821.00
76.5364 855.00
76.6016 912.00
76.6668 819.00
76.732 832.00
76.7972 870.00
76.8624 816.00
76.9276 689.00
76.9928 701.00
77.058 697.00
77.1232 701.00
77.1884 802.00
77.2536 897.00
77.3188 917.00
77.384 1080.00
77.4492 1215.00
77.5144 1302.00
77.5796 1360.00
77.6448 1422.00
77.71 1495.00
77.7752 1553.00
77.8404 1391.00
77.9056 1406.00
77.9708 1291.00
78.036 1023.00
78.1012 992.00
78.1664 867.00
78.2316 745.00
78.2968 678.00
78.362 594.00
78.4272 579.00
78.4924 585.00
78.5576 576.00
78.6228 569.00
78.688 620.00
78.7532 603.00
78.8184 593.00
78.8836 592.00
78.9488 575.00
79.014 499.00
79.0792 514.00
79.1444 460.00
79.2096 448.00
79.2748 377.00
79.34 395.00
79.4052 348.00
79.4704 330.00
79.5356 388.00
79.6008 289.00
79.666 340.00
79.7312 354.00
79.7964 365.00
79.8616 320.00
79.9268 317.00
79.992 352.00
80.0572 309.00
80.1224 314.00
80.1876 339.00
80.2528 306.00
80.318 311.00
80.3832 323.00
80.4484 317.00
80.5136 386.00
80.5788 375.00
80.644 342.00
80.7092 346.00
80.7744 366.00
80.8396 352.00
80.9048 300.00
80.9699 308.00
81.0351 309.00
81.1003 309.00
81.1655 319.00
81.2307 290.00
81.2959 267.00
81.3611 300.00
81.4263 303.00
81.4915 310.00
81.5567 293.00
81.6219 295.00
81.6871 317.00
81.7523 290.00
81.8175 277.00
81.8827 321.00
81.9479 312.00
82.0131 364.00
82.0783 350.00
82.1435 372.00
82.2087 364.00
82.2739 453.00
82.3391 469.00
82.4043 565.00
82.4695 616.00
82.5347 675.00
82.5999 649.00
82.6651 603.00
82.7303 625.00
82.7955 583.00
82.8607 535.00
82.9259 479.00
82.9911 470.00
83.0563 378.00
83.1215 360.00
83.1867 342.00
83.2519 322.00
83.3171 324.00
83.3823 322.00
83.4475 298.00
83.5127 279.00
83.5779 292.00
83.6431 316.00
83.7083 323.00
83.7735 273.00
83.8387 316.00
83.9039 292.00
83.9691 294.00
84.0343 294.00
84.0995 276.00
84.1647 285.00
84.2299 282.00
84.2951 318.00
84.3603 291.00
84.4255 343.00
84.4907 332.00
84.5559 312.00
84.6211 279.00
84.6863 305.00
84.7515 332.00
84.8167 327.00
84.8819 371.00
84.9471 305.00
85.0123 387.00
85.0775 396.00
85.1427 417.00
85.2079 398.00
85.2731 436.00
85.3383 384.00
85.4035 364.00
85.4687 410.00
85.5339 369.00
85.5991 389.00
85.6643 358.00
85.7295 339.00
85.7946 372.00
85.8598 359.00
85.925 368.00
85.9903 345.00
86.0554 341.00
86.1206 352.00
86.1858 325.00
86.251 348.00
86.3162 319.00
86.3814 306.00
86.4466 306.00
86.5118 313.00
86.577 310.00
86.6422 285.00
86.7074 299.00
86.7726 331.00
86.8378 338.00
86.903 278.00
86.9682 300.00
87.0334 280.00
87.0986 266.00
87.1638 297.00
87.229 279.00
87.2942 296.00
87.3594 258.00
87.4246 289.00
87.4898 293.00
87.555 264.00
87.6202 291.00
87.6854 276.00
87.7506 263.00
87.8158 319.00
87.881 317.00
87.9462 301.00
88.0114 341.00
88.0766 312.00
88.1418 326.00
88.207 349.00
88.2722 334.00
88.3374 377.00
88.4026 371.00
88.4678 431.00
88.533 427.00
88.5982 453.00
88.6634 503.00
88.7286 548.00
88.7938 647.00
88.859 740.00
88.9242 782.00
88.9894 763.00
89.0546 749.00
89.1198 767.00
89.185 706.00
89.2502 600.00
89.3154 574.00
89.3806 486.00
89.4458 504.00
89.511 488.00
89.5762 442.00
89.6414 429.00
89.7066 434.00
89.7718 395.00
89.837 427.00
89.9022 425.00
89.9674 428.00
90.0326 447.00
90.0978 472.00
90.163 509.00
90.2282 487.00
90.2934 524.00
90.3586 559.00
90.4238 558.00
90.489 577.00
90.5542 613.00
90.6193 630.00
90.6845 582.00
90.7497 532.00
90.8149 548.00
90.8801 500.00
90.9453 485.00
91.0105 462.00
91.0757 435.00
91.1409 427.00
91.2061 447.00
91.2713 431.00
91.3365 419.00
91.4017 398.00
91.4669 398.00
91.5321 446.00
91.5973 435.00
91.6625 470.00
91.7277 420.00
91.7929 394.00
91.8581 423.00
91.9233 377.00
91.9885 379.00
92.0537 349.00
92.1189 369.00
92.1841 357.00
92.2493 358.00
92.3145 368.00
92.3797 352.00
92.4449 335.00
92.5101 346.00
92.5753 338.00
92.6405 327.00
92.7057 327.00
92.7709 344.00
92.8361 295.00
92.9013 319.00
92.9665 297.00
93.0317 283.00
93.0969 304.00
93.1621 293.00
93.2273 279.00
93.2925 301.00
93.3577 300.00
93.4229 308.00
93.4881 313.00
93.5533 303.00
93.6185 286.00
93.6837 327.00
93.7489 278.00
93.8141 284.00
93.8793 280.00
93.9445 296.00
94.0097 305.00
94.0749 312.00
94.1401 326.00
94.2053 295.00
94.2705 276.00
94.3357 293.00
94.4009 312.00
94.4661 281.00
94.5313 302.00
94.5965 296.00
94.6617 346.00
94.7269 324.00
94.7921 329.00
94.8573 314.00
94.9225 349.00
94.9877 350.00
95.0529 353.00
95.1181 390.00
95.1833 414.00
95.2485 402.00
95.3137 433.00
95.3789 476.00
95.444 501.00
95.5092 560.00
95.5744 634.00
95.6396 636.00
95.7048 706.00
95.77 745.00
95.8352 810.00
95.9004 743.00
95.9656 727.00
96.0308 720.00
96.096 670.00
96.1612 685.00
96.2264 652.00
96.2916 625.00
96.3568 608.00
96.422 557.00
96.4872 576.00
96.5524 513.00
96.6176 513.00
96.6828 563.00
96.748 605.00
96.8132 579.00
96.8784 617.00
96.9436 618.00
97.0088 641.00
97.074 611.00
97.1392 579.00
97.2044 536.00
97.2696 569.00
97.3348 543.00
97.4 493.00
97.4652 476.00
97.5304 451.00
97.5956 379.00
97.6608 395.00
97.726 381.00
97.7912 371.00
97.8564 346.00
97.9216 344.00
97.9868 339.00
98.052 352.00
98.1172 361.00
98.1824 308.00
98.2476 323.00
98.3128 346.00
98.378 345.00
98.4432 317.00
98.5084 312.00
98.5736 321.00
98.6388 330.00
98.704 339.00
98.7692 345.00
98.8344 339.00
98.8996 335.00
98.9648 339.00
99.03 326.00
99.0952 343.00
99.1604 315.00
99.2256 307.00
99.2908 301.00
99.356 339.00
99.4212 349.00
99.4864 319.00
99.5516 297.00
99.6168 309.00
99.682 303.00
99.7472 284.00
99.8124 304.00
99.8776 295.00
99.9428 291.00
100.008 305.00
100.073 329.00
100.095 313.00