File: data/xrd_creation/results/PG_2448-1.xy
9.903433 2955.00
9.968632 2924.00
10.0338 2778.00
10.099 2706.00
10.1642 2872.00
10.2294 2832.00
10.2946 2771.00
10.3598 2890.00
10.425 2729.00
10.4902 2726.00
10.5554 2718.00
10.6206 2695.00
10.6858 2580.00
10.751 2647.00
10.8162 2582.00
10.8814 2526.00
10.9466 2594.00
11.0118 2516.00
11.077 2561.00
11.1422 2583.00
11.2074 2555.00
11.2726 2480.00
11.3378 2436.00
11.403 2492.00
11.4682 2402.00
11.5334 2412.00
11.5986 2351.00
11.6638 2389.00
11.729 2387.00
11.7942 2369.00
11.8594 2312.00
11.9246 2412.00
11.9898 2336.00
12.055 2363.00
12.1202 2323.00
12.1854 2303.00
12.2506 2327.00
12.3158 2179.00
12.381 2239.00
12.4462 2243.00
12.5114 2207.00
12.5766 2212.00
12.6418 2137.00
12.707 2107.00
12.7722 2060.00
12.8374 2164.00
12.9026 2201.00
12.9678 2127.00
13.033 2169.00
13.0982 2043.00
13.1634 2166.00
13.2286 2052.00
13.2938 2083.00
13.359 2090.00
13.4242 2036.00
13.4894 2076.00
13.5546 2034.00
13.6198 2097.00
13.685 2004.00
13.7502 1994.00
13.8154 1974.00
13.8805 2087.00
13.9457 2098.00
14.0109 2072.00
14.0761 2097.00
14.1413 2178.00
14.2065 2272.00
14.2717 2532.00
14.3369 2641.00
14.4021 2464.00
14.4673 2138.00
14.5325 2037.00
14.5977 1951.00
14.6629 1911.00
14.7281 1868.00
14.7933 1910.00
14.8585 1856.00
14.9237 1981.00
14.9889 1915.00
15.0541 1905.00
15.1193 1836.00
15.1845 1792.00
15.2497 1821.00
15.3149 1847.00
15.3801 1823.00
15.4453 1789.00
15.5105 1833.00
15.5757 1862.00
15.6409 1790.00
15.7061 1856.00
15.7713 1841.00
15.8365 1765.00
15.9017 1833.00
15.9669 1748.00
16.0321 1844.00
16.0973 1782.00
16.1625 1829.00
16.2277 1741.00
16.2929 1750.00
16.3581 1687.00
16.4233 1681.00
16.4885 1755.00
16.5537 1801.00
16.6189 1700.00
16.6841 1753.00
16.7493 1655.00
16.8145 1672.00
16.8797 1769.00
16.9449 1680.00
17.0101 1673.00
17.0753 1706.00
17.1405 1676.00
17.2057 1753.00
17.2709 1583.00
17.3361 1621.00
17.4013 1561.00
17.4665 1663.00
17.5317 1629.00
17.5969 1609.00
17.6621 1644.00
17.7273 1561.00
17.7925 1688.00
17.8577 1612.00
17.9229 1572.00
17.9881 1615.00
18.0533 1640.00
18.1185 1613.00
18.1837 1614.00
18.2489 1650.00
18.3141 1701.00
18.3793 1727.00
18.4445 1790.00
18.5097 1838.00
18.5749 2019.00
18.6401 2350.00
18.7052 2983.00
18.7704 4055.00
18.8356 5834.00
18.9008 8276.00
18.966 9383.00
19.0312 6401.00
19.0964 3410.00
19.1616 2344.00
19.2268 1900.00
19.292 1783.00
19.3572 1660.00
19.4224 1634.00
19.4876 1569.00
19.5528 1517.00
19.618 1506.00
19.6832 1557.00
19.7484 1511.00
19.8136 1512.00
19.8788 1562.00
19.944 1539.00
20.0092 1503.00
20.0744 1543.00
20.1396 1457.00
20.2048 1435.00
20.27 1445.00
20.3352 1411.00
20.4004 1468.00
20.4656 1425.00
20.5308 1406.00
20.596 1459.00
20.6612 1428.00
20.7264 1414.00
20.7916 1422.00
20.8568 1428.00
20.922 1500.00
20.9872 1478.00
21.0524 1487.00
21.1176 1524.00
21.1828 1701.00
21.248 1822.00
21.3132 2138.00
21.3784 2397.00
21.4436 2291.00
21.5088 1822.00
21.574 1548.00
21.6392 1452.00
21.7044 1387.00
21.7696 1357.00
21.8348 1316.00
21.9 1309.00
21.9652 1346.00
22.0304 1340.00
22.0956 1315.00
22.1608 1303.00
22.226 1267.00
22.2912 1332.00
22.3564 1343.00
22.4216 1290.00
22.4868 1235.00
22.552 1353.00
22.6172 1262.00
22.6824 1218.00
22.7476 1212.00
22.8128 1249.00
22.878 1184.00
22.9432 1251.00
23.0084 1250.00
23.0736 1286.00
23.1388 1270.00
23.204 1247.00
23.2692 1289.00
23.3344 1208.00
23.3996 1232.00
23.4647 1243.00
23.5299 1246.00
23.5951 1244.00
23.6603 1274.00
23.7255 1290.00
23.7907 1306.00
23.8559 1327.00
23.9211 1402.00
23.9863 1347.00
24.0515 1507.00
24.1167 1402.00
24.1819 1403.00
24.2471 1337.00
24.3123 1267.00
24.3775 1250.00
24.4427 1249.00
24.5079 1274.00
24.5731 1265.00
24.6383 1231.00
24.7035 1213.00
24.7687 1229.00
24.8339 1182.00
24.8991 1161.00
24.9643 1134.00
25.0295 1139.00
25.0947 1176.00
25.1599 1090.00
25.2251 1180.00
25.2903 1142.00
25.3555 1156.00
25.4207 1125.00
25.4859 1145.00
25.5511 1228.00
25.6163 1130.00
25.6815 1213.00
25.7467 1223.00
25.8119 1192.00
25.8771 1176.00
25.9423 1209.00
26.0075 1163.00
26.0727 1240.00
26.1379 1274.00
26.2031 1325.00
26.2683 1415.00
26.3335 1467.00
26.3987 1508.00
26.4639 1645.00
26.5291 1837.00
26.5943 2078.00
26.6595 2433.00
26.7247 3206.00
26.7899 4341.00
26.8551 5583.00
26.9203 6415.00
26.9855 5606.00
27.0507 4137.00
27.1159 2957.00
27.1811 2228.00
27.2463 1917.00
27.3115 1589.00
27.3767 1472.00
27.4419 1499.00
27.5071 1275.00
27.5723 1264.00
27.6375 1313.00
27.7027 1265.00
27.7679 1275.00
27.8331 1290.00
27.8983 1255.00
27.9635 1246.00
28.0287 1189.00
28.0939 1234.00
28.1591 1265.00
28.2243 1239.00
28.2894 1358.00
28.3546 1401.00
28.4198 1555.00
28.485 1724.00
28.5502 1958.00
28.6154 2012.00
28.6806 1868.00
28.7458 1603.00
28.811 1609.00
28.8762 1613.00
28.9414 1702.00
29.0066 1734.00
29.0718 1938.00
29.137 2269.00
29.2022 2576.00
29.2674 3174.00
29.3326 4028.00
29.3978 5054.00
29.463 5523.00
29.5282 5298.00
29.5934 4104.00
29.6586 3072.00
29.7238 2421.00
29.789 1954.00
29.8542 1745.00
29.9194 1556.00
29.9846 1582.00
30.0498 1500.00
30.115 1588.00
30.1802 1672.00
30.2454 2175.00
30.3106 2911.00
30.3758 3652.00
30.441 3406.00
30.5062 2569.00
30.5714 1779.00
30.6366 1474.00
30.7018 1331.00
30.767 1188.00
30.8322 1159.00
30.8974 1113.00
30.9626 1168.00
31.0278 1113.00
31.093 1163.00
31.1582 1144.00
31.2234 1184.00
31.2886 1286.00
31.3538 1385.00
31.419 1742.00
31.4842 2237.00
31.5494 2535.00
31.6146 2674.00
31.6798 2371.00
31.745 2125.00
31.8102 1678.00
31.8754 1547.00
31.9406 1407.00
32.0058 1446.00
32.071 1350.00
32.1362 1334.00
32.2014 1373.00
32.2666 1451.00
32.3318 1537.00
32.397 1662.00
32.4622 1730.00
32.5274 1958.00
32.5926 2402.00
32.6578 2804.00
32.723 3124.00
32.7882 3110.00
32.8534 2628.00
32.9186 2163.00
32.9838 1663.00
33.0489 1451.00
33.1141 1355.00
33.1793 1198.00
33.2445 1148.00
33.3097 1164.00
33.3749 1068.00
33.4401 1185.00
33.5053 1257.00
33.5705 1273.00
33.6357 1136.00
33.7009 1096.00
33.7661 979.00
33.8313 937.00
33.8965 956.00
33.9617 937.00
34.0269 957.00
34.0921 915.00
34.1573 910.00
34.2225 920.00
34.2877 839.00
34.3529 886.00
34.4181 892.00
34.4833 837.00
34.5485 906.00
34.6137 819.00
34.6789 863.00
34.7441 894.00
34.8093 831.00
34.8745 862.00
34.9397 797.00
35.0049 853.00
35.0701 817.00
35.1353 828.00
35.2005 871.00
35.2657 849.00
35.3309 828.00
35.3961 858.00
35.4613 885.00
35.5265 846.00
35.5917 874.00
35.6569 875.00
35.7221 902.00
35.7873 970.00
35.8525 974.00
35.9177 981.00
35.9829 1073.00
36.0481 1112.00
36.1133 1151.00
36.1785 1170.00
36.2437 1165.00
36.3089 1133.00
36.3741 1012.00
36.4393 1048.00
36.5045 872.00
36.5697 889.00
36.6349 921.00
36.7001 878.00
36.7653 852.00
36.8305 827.00
36.8957 862.00
36.9609 832.00
37.0261 832.00
37.0913 848.00
37.1565 840.00
37.2217 774.00
37.2869 817.00
37.3521 818.00
37.4173 880.00
37.4825 795.00
37.5477 783.00
37.6129 769.00
37.6781 837.00
37.7433 764.00
37.8085 833.00
37.8736 818.00
37.9388 824.00
38.004 809.00
38.0692 855.00
38.1344 825.00
38.1996 825.00
38.2648 874.00
38.33 835.00
38.3952 846.00
38.4604 767.00
38.5256 850.00
38.5908 783.00
38.656 857.00
38.7212 933.00
38.7864 967.00
38.8516 975.00
38.9168 964.00
38.982 1002.00
39.0472 1128.00
39.1124 1134.00
39.1776 1160.00
39.2428 1137.00
39.308 1022.00
39.3732 997.00
39.4384 874.00
39.5036 859.00
39.5688 847.00
39.634 813.00
39.6992 797.00
39.7644 793.00
39.8296 763.00
39.8948 773.00
39.96 779.00
40.0252 743.00
40.0904 729.00
40.1556 739.00
40.2208 784.00
40.286 764.00
40.3512 783.00
40.4164 737.00
40.4816 740.00
40.5468 765.00
40.612 776.00
40.6772 756.00
40.7424 856.00
40.8076 829.00
40.8728 759.00
40.938 813.00
41.0032 791.00
41.0684 793.00
41.1336 748.00
41.1988 763.00
41.264 694.00
41.3292 765.00
41.3944 735.00
41.4596 728.00
41.5248 714.00
41.59 753.00
41.6552 726.00
41.7204 732.00
41.7856 812.00
41.8508 808.00
41.916 818.00
41.9812 777.00
42.0464 768.00
42.1116 772.00
42.1768 765.00
42.242 741.00
42.3072 735.00
42.3724 745.00
42.4376 728.00
42.5028 786.00
42.568 736.00
42.6332 722.00
42.6983 739.00
42.7635 774.00
42.8287 760.00
42.8939 721.00
42.9591 782.00
43.0243 822.00
43.0895 925.00
43.1547 956.00
43.2199 962.00
43.2851 1022.00
43.3503 992.00
43.4155 1018.00
43.4807 902.00
43.5459 909.00
43.6111 850.00
43.6763 759.00
43.7415 764.00
43.8067 751.00
43.8719 760.00
43.9371 711.00
44.0023 713.00
44.0675 738.00
44.1327 664.00
44.1979 695.00
44.2631 739.00
44.3283 661.00
44.3935 696.00
44.4587 671.00
44.5239 689.00
44.5891 663.00
44.6543 637.00
44.7195 692.00
44.7847 694.00
44.8499 701.00
44.9151 661.00
44.9803 607.00
45.0455 648.00
45.1107 669.00
45.1759 706.00
45.2411 691.00
45.3063 739.00
45.3715 686.00
45.4367 731.00
45.5019 695.00
45.5671 740.00
45.6323 751.00
45.6975 704.00
45.7627 712.00
45.8279 753.00
45.8931 829.00
45.9583 881.00
46.0235 832.00
46.0887 988.00
46.1539 1089.00
46.2191 1266.00
46.2843 1375.00
46.3495 1484.00
46.4147 1420.00
46.4799 1367.00
46.5451 1166.00
46.6103 1067.00
46.6755 990.00
46.7407 861.00
46.8059 800.00
46.8711 775.00
46.9363 794.00
47.0015 770.00
47.0667 750.00
47.1319 765.00
47.1971 767.00
47.2623 751.00
47.3275 895.00
47.3927 904.00
47.4579 905.00
47.523 906.00
47.5882 871.00
47.6534 906.00
47.7186 915.00
47.7838 891.00
47.849 967.00
47.9142 1057.00
47.9794 1124.00
48.0446 1184.00
48.1098 1138.00
48.175 1118.00
48.2402 966.00
48.3054 936.00
48.3706 779.00
48.4358 821.00
48.501 767.00
48.5662 821.00
48.6314 827.00
48.6966 798.00
48.7618 826.00
48.827 865.00
48.8922 872.00
48.9574 901.00
49.0226 984.00
49.0878 996.00
49.153 1100.00
49.2182 1335.00
49.2834 1446.00
49.3486 1474.00
49.4138 1435.00
49.479 1168.00
49.5442 1062.00
49.6094 902.00
49.6746 808.00
49.7398 765.00
49.805 789.00
49.8702 770.00
49.9354 762.00
50.0006 778.00
50.0658 734.00
50.131 708.00
50.1962 707.00
50.2614 740.00
50.3266 710.00
50.3918 677.00
50.457 731.00
50.5222 695.00
50.5874 710.00
50.6526 674.00
50.7178 712.00
50.783 696.00
50.8482 676.00
50.9134 693.00
50.9786 710.00
51.0438 707.00
51.109 731.00
51.1742 748.00
51.2394 767.00
51.3046 846.00
51.3698 841.00
51.435 977.00
51.5002 1159.00
51.5654 1283.00
51.6306 1516.00
51.6958 1517.00
51.761 1397.00
51.8262 1257.00
51.8914 1168.00
51.9566 1037.00
52.0218 888.00
52.087 830.00
52.1522 870.00
52.2174 844.00
52.2826 828.00
52.3477 879.00
52.4129 865.00
52.4781 797.00
52.5433 801.00
52.6085 783.00
52.6737 766.00
52.7389 750.00
52.8041 781.00
52.8693 676.00
52.9345 711.00
52.9997 663.00
53.0649 676.00
53.1301 669.00
53.1953 636.00
53.2605 691.00
53.3257 654.00
53.3909 682.00
53.4561 688.00
53.5213 657.00
53.5865 727.00
53.6517 620.00
53.7169 680.00
53.7821 665.00
53.8473 707.00
53.9125 733.00
53.9777 768.00
54.0429 775.00
54.1081 863.00
54.1733 904.00
54.2385 953.00
54.3037 1105.00
54.3689 1106.00
54.4341 1147.00
54.4993 1161.00
54.5645 1072.00
54.6297 1015.00
54.6949 1019.00
54.7601 1090.00
54.8253 1011.00
54.8905 954.00
54.9557 1007.00
55.0209 984.00
55.0861 906.00
55.1513 936.00
55.2165 948.00
55.2817 879.00
55.3469 839.00
55.4121 839.00
55.4773 828.00
55.5425 820.00
55.6077 820.00
55.6729 790.00
55.7381 845.00
55.8033 865.00
55.8685 907.00
55.9337 1022.00
55.9989 1034.00
56.0641 1126.00
56.1293 1123.00
56.1945 1031.00
56.2597 1029.00
56.3249 950.00
56.3901 861.00
56.4553 812.00
56.5205 820.00
56.5857 733.00
56.6509 712.00
56.7161 727.00
56.7813 746.00
56.8465 710.00
56.9117 696.00
56.9769 711.00
57.042 690.00
57.1073 716.00
57.1724 660.00
57.2376 694.00
57.3028 679.00
57.368 696.00
57.4332 756.00
57.4984 739.00
57.5636 705.00
57.6288 723.00
57.694 674.00
57.7592 701.00
57.8244 754.00
57.8896 716.00
57.9548 668.00
58.02 680.00
58.0852 677.00
58.1504 723.00
58.2156 693.00
58.2808 730.00
58.346 709.00
58.4112 679.00
58.4764 688.00
58.5416 676.00
58.6068 725.00
58.672 728.00
58.7372 797.00
58.8024 834.00
58.8676 765.00
58.9328 787.00
58.998 755.00
59.0632 711.00
59.1284 716.00
59.1936 642.00
59.2588 638.00
59.324 700.00
59.3892 667.00
59.4544 636.00
59.5196 681.00
59.5848 650.00
59.65 657.00
59.7152 645.00
59.7804 618.00
59.8456 633.00
59.9108 638.00
59.976 642.00
60.0412 646.00
60.1064 649.00
60.1716 613.00
60.2368 664.00
60.302 634.00
60.3672 673.00
60.4324 632.00
60.4976 686.00
60.5628 680.00
60.628 639.00
60.6932 681.00
60.7584 723.00
60.8236 713.00
60.8888 686.00
60.954 686.00
61.0192 659.00
61.0844 672.00
61.1496 638.00
61.2148 637.00
61.28 571.00
61.3452 604.00
61.4104 623.00
61.4756 622.00
61.5408 651.00
61.606 572.00
61.6712 637.00
61.7364 644.00
61.8016 641.00
61.8667 618.00
61.932 640.00
61.9971 674.00
62.0623 691.00
62.1275 669.00
62.1927 659.00
62.2579 700.00
62.3231 693.00
62.3883 657.00
62.4535 694.00
62.5187 680.00
62.5839 668.00
62.6491 679.00
62.7143 671.00
62.7795 719.00
62.8447 655.00
62.9099 684.00
62.9751 625.00
63.0403 649.00
63.1055 667.00
63.1707 644.00
63.2359 683.00
63.3011 726.00
63.3663 805.00
63.4315 857.00
63.4967 868.00
63.5619 908.00
63.6271 867.00
63.6923 878.00
63.7575 781.00
63.8227 832.00
63.8879 762.00
63.9531 710.00
64.0183 717.00
64.0835 749.00
64.1487 694.00
64.2139 684.00
64.2791 693.00
64.3443 682.00
64.4095 655.00
64.4747 747.00
64.5399 701.00
64.6051 676.00
64.6703 702.00
64.7355 679.00
64.8007 709.00
64.8659 712.00
64.9311 718.00
64.9963 727.00
65.0615 765.00
65.1267 838.00
65.1919 743.00
65.2571 855.00
65.3223 778.00
65.3875 793.00
65.4527 845.00
65.5179 725.00
65.5831 808.00
65.6483 829.00
65.7135 825.00
65.7787 787.00
65.8439 815.00
65.9091 820.00
65.9743 839.00
66.0395 859.00
66.1047 909.00
66.1699 1044.00
66.2351 1033.00
66.3003 1029.00
66.3655 988.00
66.4307 1114.00
66.4959 1119.00
66.561 1049.00
66.6263 997.00
66.6915 974.00
66.7566 993.00
66.8218 912.00
66.887 880.00
66.9522 846.00
67.0174 836.00
67.0826 763.00
67.1478 713.00
67.213 723.00
67.2782 701.00
67.3434 700.00
67.4086 680.00
67.4738 722.00
67.539 737.00
67.6042 772.00
67.6694 774.00
67.7346 759.00
67.7998 840.00
67.865 800.00
67.9302 791.00
67.9954 808.00
68.0606 803.00
68.1258 753.00
68.191 770.00
68.2562 777.00
68.3214 756.00
68.3866 772.00
68.4518 724.00
68.517 733.00
68.5822 722.00
68.6474 698.00
68.7126 698.00
68.7778 677.00
68.843 690.00
68.9082 770.00
68.9734 696.00
69.0386 684.00
69.1038 733.00
69.169 722.00
69.2342 734.00
69.2994 787.00
69.3646 743.00
69.4298 723.00
69.495 729.00
69.5602 735.00
69.6254 723.00
69.6906 727.00
69.7558 705.00
69.821 744.00
69.8862 803.00
69.9514 787.00
70.0166 805.00
70.0818 779.00
70.147 844.00
70.2122 867.00
70.2774 849.00
70.3426 836.00
70.4078 817.00
70.473 731.00
70.5382 726.00
70.6034 740.00
70.6686 682.00
70.7338 663.00
70.799 653.00
70.8642 602.00
70.9294 664.00
70.9946 669.00
71.0598 673.00
71.125 600.00
71.1902 611.00
71.2554 610.00
71.3205 623.00
71.3858 592.00
71.451 602.00
71.5162 593.00
71.5813 608.00
71.6465 607.00
71.7117 583.00
71.7769 571.00
71.8421 594.00
71.9073 537.00
71.9725 619.00
72.0377 595.00
72.1029 594.00
72.1681 556.00
72.2333 592.00
72.2985 561.00
72.3637 564.00
72.4289 600.00
72.4941 573.00
72.5593 574.00
72.6245 538.00
72.6897 553.00
72.7549 557.00
72.8201 592.00
72.8853 556.00
72.9505 581.00
73.0157 586.00
73.0809 588.00
73.1461 561.00
73.2113 631.00
73.2765 619.00
73.3417 587.00
73.4069 535.00
73.4721 575.00
73.5373 620.00
73.6025 634.00
73.6677 637.00
73.7329 677.00
73.7981 650.00
73.8633 669.00
73.9285 682.00
73.9937 728.00
74.0589 691.00
74.1241 721.00
74.1893 747.00
74.2545 745.00
74.3197 677.00
74.3849 688.00
74.4501 664.00
74.5153 680.00
74.5805 651.00
74.6457 673.00
74.7109 689.00
74.7761 652.00
74.8413 644.00
74.9065 619.00
74.9717 664.00
75.0369 660.00
75.1021 712.00
75.1673 702.00
75.2325 751.00
75.2977 772.00
75.3629 842.00
75.4281 844.00
75.4933 837.00
75.5585 896.00
75.6237 827.00
75.6889 852.00
75.7541 863.00
75.8193 796.00
75.8845 793.00
75.9497 787.00
76.0149 800.00
76.0801 759.00
76.1452 742.00
76.2104 791.00
76.2756 776.00
76.3409 693.00
76.406 740.00
76.4712 720.00
76.5364 727.00
76.6016 666.00
76.6668 680.00
76.732 627.00
76.7972 642.00
76.8624 651.00
76.9276 587.00
76.9928 652.00
77.058 583.00
77.1232 623.00
77.1884 614.00
77.2536 595.00
77.3188 581.00
77.384 589.00
77.4492 599.00
77.5144 634.00
77.5796 622.00
77.6448 575.00
77.71 641.00
77.7752 623.00
77.8404 596.00
77.9056 610.00
77.9708 665.00
78.036 632.00
78.1012 656.00
78.1664 649.00
78.2316 655.00
78.2968 656.00
78.362 596.00
78.4272 590.00
78.4924 597.00
78.5576 543.00
78.6228 557.00
78.688 594.00
78.7532 608.00
78.8184 577.00
78.8836 552.00
78.9488 584.00
79.014 561.00
79.0792 617.00
79.1444 612.00
79.2096 609.00
79.2748 642.00
79.34 629.00
79.4052 600.00
79.4704 642.00
79.5356 638.00
79.6008 623.00
79.666 676.00
79.7312 603.00
79.7964 587.00
79.8616 616.00
79.9268 593.00
79.992 590.00
80.0572 568.00
80.1224 557.00
80.1876 606.00
80.2528 592.00
80.318 576.00
80.3832 611.00
80.4484 573.00
80.5136 590.00
80.5788 573.00
80.644 567.00
80.7092 614.00
80.7744 575.00
80.8396 585.00
80.9048 581.00
80.9699 616.00
81.0351 582.00
81.1003 560.00
81.1655 601.00
81.2307 595.00
81.2959 607.00
81.3611 613.00
81.4263 619.00
81.4915 574.00
81.5567 636.00
81.6219 623.00
81.6871 577.00
81.7523 572.00
81.8175 586.00
81.8827 611.00
81.9479 589.00
82.0131 589.00
82.0783 545.00
82.1435 580.00
82.2087 534.00
82.2739 571.00
82.3391 498.00
82.4043 557.00
82.4695 553.00
82.5347 512.00
82.5999 575.00
82.6651 557.00
82.7303 526.00
82.7955 518.00
82.8607 580.00
82.9259 562.00
82.9911 526.00
83.0563 580.00
83.1215 552.00
83.1867 595.00
83.2519 548.00
83.3171 523.00
83.3823 538.00
83.4475 506.00
83.5127 558.00
83.5779 527.00
83.6431 558.00
83.7083 567.00
83.7735 550.00
83.8387 538.00
83.9039 538.00
83.9691 553.00
84.0343 546.00
84.0995 536.00
84.1647 509.00
84.2299 540.00
84.2951 550.00
84.3603 576.00
84.4255 591.00
84.4907 570.00
84.5559 522.00
84.6211 517.00
84.6863 570.00
84.7515 556.00
84.8167 566.00
84.8819 579.00
84.9471 533.00
85.0123 554.00
85.0775 568.00
85.1427 541.00
85.2079 550.00
85.2731 539.00
85.3383 582.00
85.4035 559.00
85.4687 560.00
85.5339 570.00
85.5991 582.00
85.6643 568.00
85.7295 517.00
85.7946 551.00
85.8598 555.00
85.925 559.00
85.9903 592.00
86.0554 586.00
86.1206 609.00
86.1858 592.00
86.251 586.00
86.3162 657.00
86.3814 668.00
86.4466 652.00
86.5118 683.00
86.577 718.00
86.6422 706.00
86.7074 701.00
86.7726 677.00
86.8378 627.00
86.903 722.00
86.9682 643.00
87.0334 624.00
87.0986 659.00
87.1638 648.00
87.229 607.00
87.2942 642.00
87.3594 611.00
87.4246 635.00
87.4898 584.00
87.555 594.00
87.6202 643.00
87.6854 568.00
87.7506 568.00
87.8158 553.00
87.881 567.00
87.9462 574.00
88.0114 575.00
88.0766 532.00
88.1418 578.00
88.207 552.00
88.2722 572.00
88.3374 588.00
88.4026 530.00
88.4678 538.00
88.533 600.00
88.5982 586.00
88.6634 573.00
88.7286 533.00
88.7938 527.00
88.859 519.00
88.9242 548.00
88.9894 552.00
89.0546 531.00
89.1198 552.00
89.185 499.00
89.2502 548.00
89.3154 580.00
89.3806 579.00
89.4458 533.00
89.511 586.00
89.5762 561.00
89.6414 567.00
89.7066 547.00
89.7718 569.00
89.837 600.00
89.9022 568.00
89.9674 561.00
90.0326 515.00
90.0978 590.00
90.163 540.00
90.2282 586.00
90.2934 578.00
90.3586 585.00
90.4238 550.00
90.489 564.00
90.5542 568.00
90.6193 519.00
90.6845 585.00
90.7497 539.00
90.8149 495.00
90.8801 521.00
90.9453 581.00
91.0105 517.00
91.0757 557.00
91.1409 561.00
91.2061 538.00
91.2713 517.00
91.3365 556.00
91.4017 572.00
91.4669 520.00
91.5321 558.00
91.5973 564.00
91.6625 515.00
91.7277 534.00
91.7929 582.00
91.8581 591.00
91.9233 556.00
91.9885 585.00
92.0537 582.00
92.1189 558.00
92.1841 611.00
92.2493 583.00
92.3145 567.00
92.3797 552.00
92.4449 556.00
92.5101 554.00
92.5753 581.00
92.6405 580.00
92.7057 567.00
92.7709 589.00
92.8361 585.00
92.9013 619.00
92.9665 563.00
93.0317 573.00
93.0969 567.00
93.1621 547.00
93.2273 584.00
93.2925 593.00
93.3577 606.00
93.4229 598.00
93.4881 646.00
93.5533 661.00
93.6185 654.00
93.6837 638.00
93.7489 622.00
93.8141 645.00
93.8793 626.00
93.9445 624.00
94.0097 683.00
94.0749 593.00
94.1401 636.00
94.2053 654.00
94.2705 631.00
94.3357 608.00
94.4009 575.00
94.4661 608.00
94.5313 582.00
94.5965 619.00
94.6617 607.00
94.7269 576.00
94.7921 626.00
94.8573 533.00
94.9225 612.00
94.9877 607.00
95.0529 607.00
95.1181 509.00
95.1833 615.00
95.2485 555.00
95.3137 555.00
95.3789 555.00
95.444 536.00
95.5092 535.00
95.5744 530.00
95.6396 585.00
95.7048 545.00
95.77 589.00
95.8352 564.00
95.9004 622.00
95.9656 551.00
96.0308 547.00
96.096 593.00
96.1612 596.00
96.2264 575.00
96.2916 518.00
96.3568 573.00
96.422 598.00
96.4872 555.00
96.5524 560.00
96.6176 571.00
96.6828 565.00
96.748 596.00
96.8132 594.00
96.8784 575.00
96.9436 560.00
97.0088 582.00
97.074 571.00
97.1392 583.00
97.2044 549.00
97.2696 610.00
97.3348 583.00
97.4 589.00
97.4652 574.00
97.5304 572.00
97.5956 631.00
97.6608 629.00
97.726 540.00
97.7912 669.00
97.8564 631.00
97.9216 585.00
97.9868 645.00
98.052 567.00
98.1172 635.00
98.1824 612.00
98.2476 611.00
98.3128 633.00
98.378 630.00
98.4432 602.00
98.5084 607.00
98.5736 607.00
98.6388 596.00
98.704 638.00
98.7692 593.00
98.8344 537.00
98.8996 562.00
98.9648 545.00
99.03 550.00
99.0952 618.00
99.1604 575.00
99.2256 575.00
99.2908 566.00
99.356 560.00
99.4212 624.00
99.4864 543.00
99.5516 578.00
99.6168 541.00
99.682 570.00
99.7472 519.00
99.8124 560.00
99.8776 516.00
99.9428 505.00
100.008 523.00
100.073 543.00
100.095 552.00