File: data/xrd_creation/results/PG_2452-1.xy
9.903433 2429.00
9.968632 2560.00
10.0338 2513.00
10.099 2555.00
10.1642 2429.00
10.2294 2396.00
10.2946 2437.00
10.3598 2499.00
10.425 2354.00
10.4902 2345.00
10.5554 2279.00
10.6206 2373.00
10.6858 2445.00
10.751 2267.00
10.8162 2259.00
10.8814 2224.00
10.9466 2203.00
11.0118 2200.00
11.077 2157.00
11.1422 2141.00
11.2074 2156.00
11.2726 2127.00
11.3378 2153.00
11.403 2080.00
11.4682 2062.00
11.5334 2034.00
11.5986 2010.00
11.6638 2067.00
11.729 2002.00
11.7942 1956.00
11.8594 1912.00
11.9246 1771.00
11.9898 1854.00
12.055 1889.00
12.1202 1937.00
12.1854 1830.00
12.2506 1792.00
12.3158 1834.00
12.381 1820.00
12.4462 1818.00
12.5114 1737.00
12.5766 1758.00
12.6418 1639.00
12.707 1718.00
12.7722 1621.00
12.8374 1657.00
12.9026 1668.00
12.9678 1650.00
13.033 1675.00
13.0982 1563.00
13.1634 1578.00
13.2286 1620.00
13.2938 1609.00
13.359 1592.00
13.4242 1589.00
13.4894 1600.00
13.5546 1536.00
13.6198 1501.00
13.685 1525.00
13.7502 1504.00
13.8154 1468.00
13.8805 1511.00
13.9457 1493.00
14.0109 1471.00
14.0761 1509.00
14.1413 1450.00
14.2065 1448.00
14.2717 1418.00
14.3369 1417.00
14.4021 1443.00
14.4673 1391.00
14.5325 1399.00
14.5977 1391.00
14.6629 1373.00
14.7281 1364.00
14.7933 1349.00
14.8585 1344.00
14.9237 1380.00
14.9889 1377.00
15.0541 1439.00
15.1193 1318.00
15.1845 1314.00
15.2497 1298.00
15.3149 1343.00
15.3801 1337.00
15.4453 1341.00
15.5105 1313.00
15.5757 1301.00
15.6409 1261.00
15.7061 1310.00
15.7713 1322.00
15.8365 1299.00
15.9017 1264.00
15.9669 1263.00
16.0321 1230.00
16.0973 1233.00
16.1625 1213.00
16.2277 1259.00
16.2929 1205.00
16.3581 1204.00
16.4233 1189.00
16.4885 1195.00
16.5537 1173.00
16.6189 1160.00
16.6841 1174.00
16.7493 1191.00
16.8145 1251.00
16.8797 1176.00
16.9449 1218.00
17.0101 1198.00
17.0753 1135.00
17.1405 1192.00
17.2057 1098.00
17.2709 1155.00
17.3361 1155.00
17.4013 1112.00
17.4665 1116.00
17.5317 1039.00
17.5969 1096.00
17.6621 1104.00
17.7273 1039.00
17.7925 1108.00
17.8577 1147.00
17.9229 1158.00
17.9881 1061.00
18.0533 1049.00
18.1185 1031.00
18.1837 1065.00
18.2489 1060.00
18.3141 1064.00
18.3793 1111.00
18.4445 1052.00
18.5097 1031.00
18.5749 1029.00
18.6401 1013.00
18.7052 1038.00
18.7704 979.00
18.8356 977.00
18.9008 950.00
18.966 1049.00
19.0312 1023.00
19.0964 1003.00
19.1616 1028.00
19.2268 989.00
19.292 1030.00
19.3572 940.00
19.4224 997.00
19.4876 934.00
19.5528 955.00
19.618 929.00
19.6832 951.00
19.7484 864.00
19.8136 951.00
19.8788 949.00
19.944 967.00
20.0092 911.00
20.0744 970.00
20.1396 942.00
20.2048 932.00
20.27 944.00
20.3352 926.00
20.4004 894.00
20.4656 915.00
20.5308 884.00
20.596 920.00
20.6612 883.00
20.7264 899.00
20.7916 888.00
20.8568 912.00
20.922 842.00
20.9872 933.00
21.0524 884.00
21.1176 891.00
21.1828 854.00
21.248 844.00
21.3132 865.00
21.3784 858.00
21.4436 840.00
21.5088 853.00
21.574 880.00
21.6392 817.00
21.7044 837.00
21.7696 871.00
21.8348 836.00
21.9 840.00
21.9652 831.00
22.0304 851.00
22.0956 824.00
22.1608 793.00
22.226 813.00
22.2912 837.00
22.3564 823.00
22.4216 804.00
22.4868 794.00
22.552 785.00
22.6172 798.00
22.6824 798.00
22.7476 811.00
22.8128 794.00
22.878 812.00
22.9432 811.00
23.0084 838.00
23.0736 734.00
23.1388 782.00
23.204 767.00
23.2692 754.00
23.3344 817.00
23.3996 733.00
23.4647 746.00
23.5299 773.00
23.5951 753.00
23.6603 730.00
23.7255 714.00
23.7907 752.00
23.8559 709.00
23.9211 769.00
23.9863 701.00
24.0515 709.00
24.1167 752.00
24.1819 703.00
24.2471 766.00
24.3123 800.00
24.3775 673.00
24.4427 748.00
24.5079 705.00
24.5731 765.00
24.6383 718.00
24.7035 717.00
24.7687 753.00
24.8339 693.00
24.8991 681.00
24.9643 744.00
25.0295 703.00
25.0947 758.00
25.1599 733.00
25.2251 708.00
25.2903 719.00
25.3555 751.00
25.4207 666.00
25.4859 680.00
25.5511 647.00
25.6163 686.00
25.6815 674.00
25.7467 710.00
25.8119 734.00
25.8771 737.00
25.9423 665.00
26.0075 668.00
26.0727 662.00
26.1379 722.00
26.2031 685.00
26.2683 770.00
26.3335 758.00
26.3987 847.00
26.4639 834.00
26.5291 744.00
26.5943 698.00
26.6595 692.00
26.7247 617.00
26.7899 635.00
26.8551 648.00
26.9203 627.00
26.9855 672.00
27.0507 632.00
27.1159 617.00
27.1811 721.00
27.2463 712.00
27.3115 663.00
27.3767 724.00
27.4419 625.00
27.5071 669.00
27.5723 684.00
27.6375 673.00
27.7027 613.00
27.7679 656.00
27.8331 647.00
27.8983 617.00
27.9635 685.00
28.0287 662.00
28.0939 645.00
28.1591 648.00
28.2243 679.00
28.2894 689.00
28.3546 635.00
28.4198 685.00
28.485 648.00
28.5502 634.00
28.6154 634.00
28.6806 650.00
28.7458 620.00
28.811 640.00
28.8762 617.00
28.9414 580.00
29.0066 668.00
29.0718 664.00
29.137 670.00
29.2022 615.00
29.2674 612.00
29.3326 609.00
29.3978 563.00
29.463 544.00
29.5282 579.00
29.5934 555.00
29.6586 571.00
29.7238 528.00
29.789 576.00
29.8542 556.00
29.9194 542.00
29.9846 604.00
30.0498 584.00
30.115 579.00
30.1802 576.00
30.2454 567.00
30.3106 590.00
30.3758 566.00
30.441 598.00
30.5062 580.00
30.5714 508.00
30.6366 546.00
30.7018 539.00
30.767 519.00
30.8322 561.00
30.8974 522.00
30.9626 558.00
31.0278 524.00
31.093 524.00
31.1582 581.00
31.2234 570.00
31.2886 586.00
31.3538 573.00
31.419 557.00
31.4842 560.00
31.5494 542.00
31.6146 575.00
31.6798 534.00
31.745 499.00
31.8102 547.00
31.8754 479.00
31.9406 531.00
32.0058 497.00
32.071 491.00
32.1362 519.00
32.2014 538.00
32.2666 515.00
32.3318 485.00
32.397 525.00
32.4622 514.00
32.5274 508.00
32.5926 475.00
32.6578 497.00
32.723 482.00
32.7882 503.00
32.8534 512.00
32.9186 484.00
32.9838 495.00
33.0489 486.00
33.1141 485.00
33.1793 508.00
33.2445 491.00
33.3097 530.00
33.3749 504.00
33.4401 519.00
33.5053 500.00
33.5705 550.00
33.6357 547.00
33.7009 585.00
33.7661 652.00
33.8313 508.00
33.8965 531.00
33.9617 518.00
34.0269 469.00
34.0921 483.00
34.1573 491.00
34.2225 434.00
34.2877 437.00
34.3529 507.00
34.4181 494.00
34.4833 442.00
34.5485 508.00
34.6137 492.00
34.6789 471.00
34.7441 486.00
34.8093 440.00
34.8745 491.00
34.9397 472.00
35.0049 444.00
35.0701 450.00
35.1353 448.00
35.2005 442.00
35.2657 431.00
35.3309 455.00
35.3961 433.00
35.4613 411.00
35.5265 461.00
35.5917 460.00
35.6569 466.00
35.7221 443.00
35.7873 424.00
35.8525 411.00
35.9177 429.00
35.9829 406.00
36.0481 429.00
36.1133 430.00
36.1785 407.00
36.2437 435.00
36.3089 419.00
36.3741 423.00
36.4393 427.00
36.5045 418.00
36.5697 417.00
36.6349 456.00
36.7001 425.00
36.7653 391.00
36.8305 448.00
36.8957 400.00
36.9609 470.00
37.0261 395.00
37.0913 386.00
37.1565 420.00
37.2217 407.00
37.2869 419.00
37.3521 421.00
37.4173 428.00
37.4825 400.00
37.5477 397.00
37.6129 435.00
37.6781 466.00
37.7433 441.00
37.8085 470.00
37.8736 440.00
37.9388 390.00
38.004 428.00
38.0692 374.00
38.1344 400.00
38.1996 406.00
38.2648 381.00
38.33 392.00
38.3952 361.00
38.4604 372.00
38.5256 367.00
38.5908 349.00
38.656 383.00
38.7212 347.00
38.7864 391.00
38.8516 361.00
38.9168 378.00
38.982 393.00
39.0472 349.00
39.1124 331.00
39.1776 377.00
39.2428 364.00
39.308 369.00
39.3732 366.00
39.4384 379.00
39.5036 343.00
39.5688 369.00
39.634 337.00
39.6992 351.00
39.7644 374.00
39.8296 409.00
39.8948 384.00
39.96 353.00
40.0252 373.00
40.0904 395.00
40.1556 361.00
40.2208 354.00
40.286 386.00
40.3512 401.00
40.4164 365.00
40.4816 400.00
40.5468 368.00
40.612 331.00
40.6772 367.00
40.7424 380.00
40.8076 332.00
40.8728 332.00
40.938 344.00
41.0032 387.00
41.0684 330.00
41.1336 345.00
41.1988 360.00
41.264 364.00
41.3292 321.00
41.3944 352.00
41.4596 340.00
41.5248 319.00
41.59 347.00
41.6552 321.00
41.7204 338.00
41.7856 367.00
41.8508 354.00
41.916 325.00
41.9812 338.00
42.0464 322.00
42.1116 309.00
42.1768 320.00
42.242 338.00
42.3072 291.00
42.3724 369.00
42.4376 346.00
42.5028 322.00
42.568 375.00
42.6332 341.00
42.6983 347.00
42.7635 339.00
42.8287 326.00
42.8939 330.00
42.9591 336.00
43.0243 352.00
43.0895 320.00
43.1547 335.00
43.2199 358.00
43.2851 275.00
43.3503 339.00
43.4155 346.00
43.4807 313.00
43.5459 332.00
43.6111 336.00
43.6763 303.00
43.7415 305.00
43.8067 326.00
43.8719 285.00
43.9371 292.00
44.0023 319.00
44.0675 357.00
44.1327 284.00
44.1979 336.00
44.2631 335.00
44.3283 313.00
44.3935 307.00
44.4587 354.00
44.5239 328.00
44.5891 315.00
44.6543 315.00
44.7195 318.00
44.7847 293.00
44.8499 325.00
44.9151 311.00
44.9803 343.00
45.0455 309.00
45.1107 294.00
45.1759 310.00
45.2411 325.00
45.3063 293.00
45.3715 302.00
45.4367 318.00
45.5019 303.00
45.5671 303.00
45.6323 320.00
45.6975 300.00
45.7627 270.00
45.8279 303.00
45.8931 288.00
45.9583 319.00
46.0235 299.00
46.0887 339.00
46.1539 281.00
46.2191 275.00
46.2843 311.00
46.3495 261.00
46.4147 301.00
46.4799 323.00
46.5451 317.00
46.6103 311.00
46.6755 293.00
46.7407 287.00
46.8059 314.00
46.8711 297.00
46.9363 288.00
47.0015 309.00
47.0667 321.00
47.1319 272.00
47.1971 290.00
47.2623 304.00
47.3275 290.00
47.3927 321.00
47.4579 293.00
47.523 312.00
47.5882 291.00
47.6534 308.00
47.7186 319.00
47.7838 289.00
47.849 315.00
47.9142 286.00
47.9794 293.00
48.0446 334.00
48.1098 286.00
48.175 283.00
48.2402 294.00
48.3054 284.00
48.3706 305.00
48.4358 325.00
48.501 316.00
48.5662 303.00
48.6314 294.00
48.6966 301.00
48.7618 311.00
48.827 315.00
48.8922 245.00
48.9574 312.00
49.0226 286.00
49.0878 282.00
49.153 295.00
49.2182 299.00
49.2834 270.00
49.3486 264.00
49.4138 293.00
49.479 319.00
49.5442 272.00
49.6094 282.00
49.6746 250.00
49.7398 306.00
49.805 269.00
49.8702 308.00
49.9354 317.00
50.0006 296.00
50.0658 302.00
50.131 287.00
50.1962 279.00
50.2614 277.00
50.3266 275.00
50.3918 283.00
50.457 289.00
50.5222 271.00
50.5874 282.00
50.6526 295.00
50.7178 293.00
50.783 237.00
50.8482 274.00
50.9134 267.00
50.9786 274.00
51.0438 235.00
51.109 292.00
51.1742 295.00
51.2394 246.00
51.3046 270.00
51.3698 298.00
51.435 271.00
51.5002 311.00
51.5654 340.00
51.6306 373.00
51.6958 321.00
51.761 345.00
51.8262 327.00
51.8914 282.00
51.9566 266.00
52.0218 263.00
52.087 269.00
52.1522 281.00
52.2174 295.00
52.2826 268.00
52.3477 263.00
52.4129 297.00
52.4781 273.00
52.5433 250.00
52.6085 265.00
52.6737 259.00
52.7389 274.00
52.8041 273.00
52.8693 297.00
52.9345 272.00
52.9997 257.00
53.0649 277.00
53.1301 249.00
53.1953 262.00
53.2605 229.00
53.3257 236.00
53.3909 285.00
53.4561 258.00
53.5213 263.00
53.5865 277.00
53.6517 264.00
53.7169 281.00
53.7821 259.00
53.8473 269.00
53.9125 282.00
53.9777 288.00
54.0429 288.00
54.1081 272.00
54.1733 268.00
54.2385 220.00
54.3037 227.00
54.3689 244.00
54.4341 257.00
54.4993 287.00
54.5645 257.00
54.6297 258.00
54.6949 262.00
54.7601 249.00
54.8253 272.00
54.8905 263.00
54.9557 261.00
55.0209 283.00
55.0861 257.00
55.1513 248.00
55.2165 273.00
55.2817 244.00
55.3469 268.00
55.4121 267.00
55.4773 274.00
55.5425 271.00
55.6077 258.00
55.6729 238.00
55.7381 270.00
55.8033 234.00
55.8685 208.00
55.9337 248.00
55.9989 234.00
56.0641 218.00
56.1293 246.00
56.1945 226.00
56.2597 269.00
56.3249 244.00
56.3901 248.00
56.4553 241.00
56.5205 219.00
56.5857 208.00
56.6509 235.00
56.7161 249.00
56.7813 247.00
56.8465 206.00
56.9117 270.00
56.9769 232.00
57.042 239.00
57.1073 247.00
57.1724 242.00
57.2376 269.00
57.3028 259.00
57.368 239.00
57.4332 238.00
57.4984 228.00
57.5636 250.00
57.6288 210.00
57.694 247.00
57.7592 211.00
57.8244 268.00
57.8896 240.00
57.9548 204.00
58.02 210.00
58.0852 224.00
58.1504 235.00
58.2156 204.00
58.2808 235.00
58.346 217.00
58.4112 232.00
58.4764 241.00
58.5416 248.00
58.6068 195.00
58.672 193.00
58.7372 214.00
58.8024 234.00
58.8676 199.00
58.9328 216.00
58.998 221.00
59.0632 225.00
59.1284 246.00
59.1936 236.00
59.2588 206.00
59.324 225.00
59.3892 227.00
59.4544 236.00
59.5196 221.00
59.5848 222.00
59.65 206.00
59.7152 212.00
59.7804 213.00
59.8456 196.00
59.9108 209.00
59.976 225.00
60.0412 225.00
60.1064 230.00
60.1716 227.00
60.2368 214.00
60.302 236.00
60.3672 224.00
60.4324 197.00
60.4976 225.00
60.5628 219.00
60.628 197.00
60.6932 193.00
60.7584 231.00
60.8236 208.00
60.8888 234.00
60.954 222.00
61.0192 217.00
61.0844 208.00
61.1496 216.00
61.2148 227.00
61.28 233.00
61.3452 210.00
61.4104 216.00
61.4756 229.00
61.5408 193.00
61.606 188.00
61.6712 223.00
61.7364 221.00
61.8016 267.00
61.8667 216.00
61.932 230.00
61.9971 231.00
62.0623 219.00
62.1275 218.00
62.1927 203.00
62.2579 221.00
62.3231 197.00
62.3883 224.00
62.4535 195.00
62.5187 223.00
62.5839 222.00
62.6491 216.00
62.7143 221.00
62.7795 207.00
62.8447 208.00
62.9099 229.00
62.9751 200.00
63.0403 223.00
63.1055 218.00
63.1707 216.00
63.2359 224.00
63.3011 226.00
63.3663 217.00
63.4315 218.00
63.4967 176.00
63.5619 213.00
63.6271 212.00
63.6923 210.00
63.7575 246.00
63.8227 195.00
63.8879 199.00
63.9531 195.00
64.0183 234.00
64.0835 194.00
64.1487 204.00
64.2139 212.00
64.2791 206.00
64.3443 182.00
64.4095 211.00
64.4747 223.00
64.5399 186.00
64.6051 210.00
64.6703 230.00
64.7355 198.00
64.8007 222.00
64.8659 184.00
64.9311 211.00
64.9963 198.00
65.0615 204.00
65.1267 197.00
65.1919 209.00
65.2571 196.00
65.3223 193.00
65.3875 208.00
65.4527 202.00
65.5179 239.00
65.5831 198.00
65.6483 217.00
65.7135 230.00
65.7787 217.00
65.8439 242.00
65.9091 219.00
65.9743 213.00
66.0395 219.00
66.1047 207.00
66.1699 212.00
66.2351 201.00
66.3003 193.00
66.3655 208.00
66.4307 196.00
66.4959 212.00
66.561 189.00
66.6263 239.00
66.6915 209.00
66.7566 190.00
66.8218 206.00
66.887 207.00
66.9522 221.00
67.0174 215.00
67.0826 195.00
67.1478 164.00
67.213 199.00
67.2782 194.00
67.3434 203.00
67.4086 216.00
67.4738 222.00
67.539 206.00
67.6042 194.00
67.6694 213.00
67.7346 202.00
67.7998 192.00
67.865 192.00
67.9302 227.00
67.9954 191.00
68.0606 203.00
68.1258 217.00
68.191 219.00
68.2562 233.00
68.3214 212.00
68.3866 181.00
68.4518 202.00
68.517 207.00
68.5822 184.00
68.6474 195.00
68.7126 205.00
68.7778 177.00
68.843 218.00
68.9082 208.00
68.9734 222.00
69.0386 205.00
69.1038 211.00
69.169 210.00
69.2342 211.00
69.2994 177.00
69.3646 196.00
69.4298 212.00
69.495 211.00
69.5602 204.00
69.6254 207.00
69.6906 211.00
69.7558 194.00
69.821 234.00
69.8862 211.00
69.9514 212.00
70.0166 185.00
70.0818 182.00
70.147 193.00
70.2122 206.00
70.2774 207.00
70.3426 225.00
70.4078 198.00
70.473 186.00
70.5382 203.00
70.6034 203.00
70.6686 211.00
70.7338 198.00
70.799 195.00
70.8642 199.00
70.9294 181.00
70.9946 188.00
71.0598 173.00
71.125 175.00
71.1902 240.00
71.2554 195.00
71.3205 228.00
71.3858 186.00
71.451 206.00
71.5162 196.00
71.5813 213.00
71.6465 198.00
71.7117 199.00
71.7769 196.00
71.8421 209.00
71.9073 208.00
71.9725 230.00
72.0377 187.00
72.1029 223.00
72.1681 215.00
72.2333 206.00
72.2985 181.00
72.3637 218.00
72.4289 192.00
72.4941 215.00
72.5593 223.00
72.6245 183.00
72.6897 210.00
72.7549 223.00
72.8201 202.00
72.8853 215.00
72.9505 190.00
73.0157 251.00
73.0809 191.00
73.1461 231.00
73.2113 199.00
73.2765 218.00
73.3417 213.00
73.4069 231.00
73.4721 215.00
73.5373 188.00
73.6025 233.00
73.6677 199.00
73.7329 212.00
73.7981 207.00
73.8633 219.00
73.9285 226.00
73.9937 197.00
74.0589 202.00
74.1241 217.00
74.1893 211.00
74.2545 205.00
74.3197 194.00
74.3849 224.00
74.4501 228.00
74.5153 194.00
74.5805 233.00
74.6457 236.00
74.7109 219.00
74.7761 228.00
74.8413 204.00
74.9065 208.00
74.9717 199.00
75.0369 238.00
75.1021 211.00
75.1673 238.00
75.2325 213.00
75.2977 208.00
75.3629 217.00
75.4281 201.00
75.4933 230.00
75.5585 237.00
75.6237 231.00
75.6889 203.00
75.7541 208.00
75.8193 227.00
75.8845 203.00
75.9497 238.00
76.0149 222.00
76.0801 192.00
76.1452 208.00
76.2104 217.00
76.2756 221.00
76.3409 213.00
76.406 187.00
76.4712 257.00
76.5364 210.00
76.6016 200.00
76.6668 225.00
76.732 205.00
76.7972 213.00
76.8624 240.00
76.9276 204.00
76.9928 207.00
77.058 243.00
77.1232 200.00
77.1884 185.00
77.2536 213.00
77.3188 217.00
77.384 216.00
77.4492 189.00
77.5144 216.00
77.5796 239.00
77.6448 188.00
77.71 233.00
77.7752 222.00
77.8404 214.00
77.9056 215.00
77.9708 213.00
78.036 213.00
78.1012 236.00
78.1664 208.00
78.2316 207.00
78.2968 260.00
78.362 194.00
78.4272 219.00
78.4924 243.00
78.5576 213.00
78.6228 245.00
78.688 201.00
78.7532 222.00
78.8184 239.00
78.8836 230.00
78.9488 224.00
79.014 229.00
79.0792 218.00
79.1444 218.00
79.2096 234.00
79.2748 201.00
79.34 229.00
79.4052 211.00
79.4704 232.00
79.5356 187.00
79.6008 223.00
79.666 204.00
79.7312 231.00
79.7964 215.00
79.8616 261.00
79.9268 226.00
79.992 244.00
80.0572 224.00
80.1224 246.00
80.1876 279.00
80.2528 235.00
80.318 246.00
80.3832 233.00
80.4484 258.00
80.5136 228.00
80.5788 221.00
80.644 228.00
80.7092 228.00
80.7744 235.00
80.8396 230.00
80.9048 227.00
80.9699 251.00
81.0351 241.00
81.1003 242.00
81.1655 237.00
81.2307 218.00
81.2959 219.00
81.3611 237.00
81.4263 237.00
81.4915 211.00
81.5567 226.00
81.6219 226.00
81.6871 241.00
81.7523 239.00
81.8175 231.00
81.8827 239.00
81.9479 250.00
82.0131 216.00
82.0783 233.00
82.1435 235.00
82.2087 208.00
82.2739 242.00
82.3391 202.00
82.4043 231.00
82.4695 273.00
82.5347 241.00
82.5999 243.00
82.6651 222.00
82.7303 236.00
82.7955 240.00
82.8607 223.00
82.9259 247.00
82.9911 249.00
83.0563 219.00
83.1215 216.00
83.1867 280.00
83.2519 224.00
83.3171 239.00
83.3823 196.00
83.4475 233.00
83.5127 235.00
83.5779 221.00
83.6431 218.00
83.7083 227.00
83.7735 249.00
83.8387 215.00
83.9039 224.00
83.9691 240.00
84.0343 227.00
84.0995 247.00
84.1647 196.00
84.2299 220.00
84.2951 227.00
84.3603 224.00
84.4255 231.00
84.4907 233.00
84.5559 218.00
84.6211 214.00
84.6863 187.00
84.7515 243.00
84.8167 219.00
84.8819 228.00
84.9471 223.00
85.0123 223.00
85.0775 216.00
85.1427 190.00
85.2079 219.00
85.2731 205.00
85.3383 221.00
85.4035 197.00
85.4687 213.00
85.5339 233.00
85.5991 197.00
85.6643 221.00
85.7295 194.00
85.7946 220.00
85.8598 207.00
85.925 223.00
85.9903 226.00
86.0554 208.00
86.1206 241.00
86.1858 207.00
86.251 213.00
86.3162 208.00
86.3814 214.00
86.4466 208.00
86.5118 197.00
86.577 212.00
86.6422 197.00
86.7074 213.00
86.7726 198.00
86.8378 209.00
86.903 184.00
86.9682 230.00
87.0334 228.00
87.0986 202.00
87.1638 207.00
87.229 229.00
87.2942 210.00
87.3594 208.00
87.4246 218.00
87.4898 221.00
87.555 205.00
87.6202 243.00
87.6854 216.00
87.7506 208.00
87.8158 202.00
87.881 191.00
87.9462 205.00
88.0114 203.00
88.0766 221.00
88.1418 200.00
88.207 195.00
88.2722 198.00
88.3374 204.00
88.4026 220.00
88.4678 194.00
88.533 175.00
88.5982 214.00
88.6634 207.00
88.7286 220.00
88.7938 204.00
88.859 207.00
88.9242 234.00
88.9894 208.00
89.0546 216.00
89.1198 206.00
89.185 191.00
89.2502 184.00
89.3154 208.00
89.3806 197.00
89.4458 220.00
89.511 224.00
89.5762 189.00
89.6414 184.00
89.7066 227.00
89.7718 193.00
89.837 195.00
89.9022 184.00
89.9674 195.00
90.0326 202.00
90.0978 188.00
90.163 202.00
90.2282 179.00
90.2934 170.00
90.3586 201.00
90.4238 189.00
90.489 192.00
90.5542 183.00
90.6193 219.00
90.6845 187.00
90.7497 216.00
90.8149 188.00
90.8801 211.00
90.9453 191.00
91.0105 219.00
91.0757 212.00
91.1409 220.00
91.2061 201.00
91.2713 196.00
91.3365 209.00
91.4017 184.00
91.4669 199.00
91.5321 170.00
91.5973 199.00
91.6625 193.00
91.7277 224.00
91.7929 196.00
91.8581 179.00
91.9233 198.00
91.9885 192.00
92.0537 187.00
92.1189 182.00
92.1841 172.00
92.2493 190.00
92.3145 203.00
92.3797 205.00
92.4449 192.00
92.5101 192.00
92.5753 194.00
92.6405 204.00
92.7057 209.00
92.7709 212.00
92.8361 202.00
92.9013 167.00
92.9665 195.00
93.0317 174.00
93.0969 184.00
93.1621 192.00
93.2273 203.00
93.2925 175.00
93.3577 198.00
93.4229 213.00
93.4881 196.00
93.5533 195.00
93.6185 209.00
93.6837 209.00
93.7489 180.00
93.8141 157.00
93.8793 205.00
93.9445 201.00
94.0097 154.00
94.0749 180.00
94.1401 192.00
94.2053 201.00
94.2705 208.00
94.3357 190.00
94.4009 176.00
94.4661 208.00
94.5313 196.00
94.5965 181.00
94.6617 183.00
94.7269 196.00
94.7921 185.00
94.8573 202.00
94.9225 197.00
94.9877 188.00
95.0529 159.00
95.1181 189.00
95.1833 198.00
95.2485 209.00
95.3137 209.00
95.3789 200.00
95.444 218.00
95.5092 170.00
95.5744 194.00
95.6396 184.00
95.7048 205.00
95.77 188.00
95.8352 210.00
95.9004 210.00
95.9656 172.00
96.0308 196.00
96.096 212.00
96.1612 194.00
96.2264 189.00
96.2916 215.00
96.3568 180.00
96.422 191.00
96.4872 198.00
96.5524 195.00
96.6176 197.00
96.6828 173.00
96.748 157.00
96.8132 143.00
96.8784 181.00
96.9436 245.00
97.0088 195.00
97.074 202.00
97.1392 212.00
97.2044 179.00
97.2696 210.00
97.3348 182.00
97.4 192.00
97.4652 179.00
97.5304 153.00
97.5956 220.00
97.6608 222.00
97.726 192.00
97.7912 232.00
97.8564 205.00
97.9216 183.00
97.9868 190.00
98.052 199.00
98.1172 176.00
98.1824 179.00
98.2476 197.00
98.3128 196.00
98.378 205.00
98.4432 187.00
98.5084 184.00
98.5736 182.00
98.6388 195.00
98.704 165.00
98.7692 201.00
98.8344 191.00
98.8996 197.00
98.9648 208.00
99.03 210.00
99.0952 183.00
99.1604 192.00
99.2256 195.00
99.2908 175.00
99.356 188.00
99.4212 186.00
99.4864 168.00
99.5516 187.00
99.6168 199.00
99.682 195.00
99.7472 175.00
99.8124 183.00
99.8776 197.00
99.9428 171.00
100.008 207.00
100.073 193.00
100.095 188.00