File: data/xrd_creation/results/PG_2450-1.xy
9.903433 3363.00
9.968632 3357.00
10.0338 3393.00
10.099 3279.00
10.1642 3318.00
10.2294 3374.00
10.2946 3288.00
10.3598 3218.00
10.425 3291.00
10.4902 3298.00
10.5554 3218.00
10.6206 3190.00
10.6858 3128.00
10.751 3095.00
10.8162 3087.00
10.8814 3071.00
10.9466 3033.00
11.0118 3090.00
11.077 3119.00
11.1422 3122.00
11.2074 3022.00
11.2726 3072.00
11.3378 3027.00
11.403 2996.00
11.4682 3098.00
11.5334 2968.00
11.5986 2986.00
11.6638 2980.00
11.729 2913.00
11.7942 2968.00
11.8594 2874.00
11.9246 2807.00
11.9898 2851.00
12.055 2835.00
12.1202 2808.00
12.1854 2902.00
12.2506 2845.00
12.3158 2793.00
12.381 2928.00
12.4462 2859.00
12.5114 2806.00
12.5766 2776.00
12.6418 2795.00
12.707 2593.00
12.7722 2770.00
12.8374 2817.00
12.9026 2802.00
12.9678 2774.00
13.033 2704.00
13.0982 2611.00
13.1634 2723.00
13.2286 2683.00
13.2938 2707.00
13.359 2615.00
13.4242 2680.00
13.4894 2667.00
13.5546 2719.00
13.6198 2621.00
13.685 2647.00
13.7502 2671.00
13.8154 2734.00
13.8805 2808.00
13.9457 2807.00
14.0109 2741.00
14.0761 2697.00
14.1413 2723.00
14.2065 2733.00
14.2717 2737.00
14.3369 2824.00
14.4021 2790.00
14.4673 2815.00
14.5325 2735.00
14.5977 2730.00
14.6629 2732.00
14.7281 2873.00
14.7933 2782.00
14.8585 2801.00
14.9237 2701.00
14.9889 2752.00
15.0541 2763.00
15.1193 2711.00
15.1845 2747.00
15.2497 2635.00
15.3149 2675.00
15.3801 2625.00
15.4453 2635.00
15.5105 2692.00
15.5757 2668.00
15.6409 2675.00
15.7061 2683.00
15.7713 2652.00
15.8365 2622.00
15.9017 2651.00
15.9669 2559.00
16.0321 2684.00
16.0973 2687.00
16.1625 2666.00
16.2277 2657.00
16.2929 2689.00
16.3581 2597.00
16.4233 2691.00
16.4885 2486.00
16.5537 2524.00
16.6189 2665.00
16.6841 2576.00
16.7493 2755.00
16.8145 2601.00
16.8797 2552.00
16.9449 2534.00
17.0101 2617.00
17.0753 2622.00
17.1405 2472.00
17.2057 2513.00
17.2709 2507.00
17.3361 2588.00
17.4013 2425.00
17.4665 2529.00
17.5317 2428.00
17.5969 2418.00
17.6621 2500.00
17.7273 2459.00
17.7925 2328.00
17.8577 2496.00
17.9229 2476.00
17.9881 2442.00
18.0533 2461.00
18.1185 2390.00
18.1837 2397.00
18.2489 2366.00
18.3141 2415.00
18.3793 2286.00
18.4445 2546.00
18.5097 2367.00
18.5749 2391.00
18.6401 2370.00
18.7052 2410.00
18.7704 2471.00
18.8356 2318.00
18.9008 2407.00
18.966 2344.00
19.0312 2258.00
19.0964 2348.00
19.1616 2269.00
19.2268 2176.00
19.292 2285.00
19.3572 2188.00
19.4224 2193.00
19.4876 2253.00
19.5528 2254.00
19.618 2262.00
19.6832 2289.00
19.7484 2232.00
19.8136 2265.00
19.8788 2350.00
19.944 2298.00
20.0092 2259.00
20.0744 2294.00
20.1396 2290.00
20.2048 2442.00
20.27 2379.00
20.3352 2428.00
20.4004 2497.00
20.4656 2582.00
20.5308 2817.00
20.596 3464.00
20.6612 4805.00
20.7264 6956.00
20.7916 9195.00
20.8568 8285.00
20.922 4812.00
20.9872 3185.00
21.0524 2632.00
21.1176 2530.00
21.1828 2375.00
21.248 2390.00
21.3132 2302.00
21.3784 2339.00
21.4436 2457.00
21.5088 2515.00
21.574 2697.00
21.6392 2867.00
21.7044 2777.00
21.7696 2371.00
21.8348 2263.00
21.9 2256.00
21.9652 2248.00
22.0304 2160.00
22.0956 2123.00
22.1608 2054.00
22.226 2112.00
22.2912 2149.00
22.3564 2090.00
22.4216 2202.00
22.4868 2154.00
22.552 2161.00
22.6172 2144.00
22.6824 2006.00
22.7476 2163.00
22.8128 2201.00
22.878 2122.00
22.9432 2139.00
23.0084 2116.00
23.0736 2197.00
23.1388 2182.00
23.204 2146.00
23.2692 2121.00
23.3344 1986.00
23.3996 2059.00
23.4647 2081.00
23.5299 2100.00
23.5951 2169.00
23.6603 2216.00
23.7255 2201.00
23.7907 2080.00
23.8559 2060.00
23.9211 2139.00
23.9863 2055.00
24.0515 2071.00
24.1167 2100.00
24.1819 2059.00
24.2471 2085.00
24.3123 2032.00
24.3775 2016.00
24.4427 1899.00
24.5079 2103.00
24.5731 2096.00
24.6383 2050.00
24.7035 2058.00
24.7687 2044.00
24.8339 2087.00
24.8991 2028.00
24.9643 2136.00
25.0295 2069.00
25.0947 2040.00
25.1599 2043.00
25.2251 2005.00
25.2903 1962.00
25.3555 2033.00
25.4207 1946.00
25.4859 2143.00
25.5511 2009.00
25.6163 1942.00
25.6815 2058.00
25.7467 1995.00
25.8119 1942.00
25.8771 2041.00
25.9423 2035.00
26.0075 2041.00
26.0727 1901.00
26.1379 1925.00
26.2031 2004.00
26.2683 1966.00
26.3335 1882.00
26.3987 1938.00
26.4639 1971.00
26.5291 2118.00
26.5943 2129.00
26.6595 2166.00
26.7247 2017.00
26.7899 1967.00
26.8551 1988.00
26.9203 2020.00
26.9855 1963.00
27.0507 1975.00
27.1159 1952.00
27.1811 1994.00
27.2463 1952.00
27.3115 2059.00
27.3767 1941.00
27.4419 1945.00
27.5071 1920.00
27.5723 1935.00
27.6375 2068.00
27.7027 1935.00
27.7679 2028.00
27.8331 2034.00
27.8983 1976.00
27.9635 1923.00
28.0287 1987.00
28.0939 1975.00
28.1591 2041.00
28.2243 2058.00
28.2894 2097.00
28.3546 2123.00
28.4198 2252.00
28.485 2335.00
28.5502 2420.00
28.6154 2413.00
28.6806 2517.00
28.7458 2542.00
28.811 2820.00
28.8762 2879.00
28.9414 3252.00
29.0066 3480.00
29.0718 4045.00
29.137 4831.00
29.2022 6886.00
29.2674 12017.00
29.3326 24870.00
29.3978 49480.00
29.463 68527.00
29.5282 46275.00
29.5934 19981.00
29.6586 8806.00
29.7238 5830.00
29.789 4519.00
29.8542 3740.00
29.9194 3109.00
29.9846 2744.00
30.0498 2541.00
30.115 2534.00
30.1802 2446.00
30.2454 2338.00
30.3106 2403.00
30.3758 2276.00
30.441 2352.00
30.5062 2342.00
30.5714 2401.00
30.6366 2351.00
30.7018 2478.00
30.767 2483.00
30.8322 2576.00
30.8974 2540.00
30.9626 2519.00
31.0278 2442.00
31.093 2253.00
31.1582 2221.00
31.2234 2231.00
31.2886 2217.00
31.3538 2076.00
31.419 2063.00
31.4842 2121.00
31.5494 2107.00
31.6146 2166.00
31.6798 2212.00
31.745 2373.00
31.8102 2507.00
31.8754 2563.00
31.9406 2517.00
32.0058 2656.00
32.071 2626.00
32.1362 2528.00
32.2014 2300.00
32.2666 2177.00
32.3318 2141.00
32.397 2141.00
32.4622 1954.00
32.5274 2054.00
32.5926 2015.00
32.6578 2127.00
32.723 2312.00
32.7882 2672.00
32.8534 2812.00
32.9186 2739.00
32.9838 2277.00
33.0489 2101.00
33.1141 2041.00
33.1793 2128.00
33.2445 1908.00
33.3097 1994.00
33.3749 1939.00
33.4401 2152.00
33.5053 2043.00
33.5705 2073.00
33.6357 2312.00
33.7009 2247.00
33.7661 2496.00
33.8313 3047.00
33.8965 4054.00
33.9617 7037.00
34.0269 13254.00
34.0921 17433.00
34.1573 12931.00
34.2225 7149.00
34.2877 3844.00
34.3529 2994.00
34.4181 2672.00
34.4833 2425.00
34.5485 2145.00
34.6137 1949.00
34.6789 2035.00
34.7441 1955.00
34.8093 1918.00
34.8745 1895.00
34.9397 1923.00
35.0049 1853.00
35.0701 1903.00
35.1353 1890.00
35.2005 1832.00
35.2657 1919.00
35.3309 1848.00
35.3961 1729.00
35.4613 1826.00
35.5265 1759.00
35.5917 1823.00
35.6569 1767.00
35.7221 1931.00
35.7873 1871.00
35.8525 1869.00
35.9177 1986.00
35.9829 2194.00
36.0481 2778.00
36.1133 3686.00
36.1785 4852.00
36.2437 4521.00
36.3089 3549.00
36.3741 2605.00
36.4393 2142.00
36.5045 2013.00
36.5697 1827.00
36.6349 1877.00
36.7001 1748.00
36.7653 1844.00
36.8305 1831.00
36.8957 1745.00
36.9609 1807.00
37.0261 1876.00
37.0913 1897.00
37.1565 1932.00
37.2217 1996.00
37.2869 2032.00
37.3521 1878.00
37.4173 1821.00
37.4825 1865.00
37.5477 1732.00
37.6129 1788.00
37.6781 1703.00
37.7433 1800.00
37.8085 1797.00
37.8736 1655.00
37.9388 1783.00
38.004 1770.00
38.0692 1883.00
38.1344 2082.00
38.1996 2353.00
38.2648 2246.00
38.33 1979.00
38.3952 1805.00
38.4604 1674.00
38.5256 1724.00
38.5908 1719.00
38.656 1766.00
38.7212 1676.00
38.7864 1753.00
38.8516 1652.00
38.9168 1690.00
38.982 1674.00
39.0472 1640.00
39.1124 1746.00
39.1776 1672.00
39.2428 1669.00
39.308 1656.00
39.3732 1727.00
39.4384 1767.00
39.5036 1642.00
39.5688 1661.00
39.634 1706.00
39.6992 1765.00
39.7644 1911.00
39.8296 1910.00
39.8948 2044.00
39.96 2328.00
40.0252 3096.00
40.0904 4794.00
40.1556 5511.00
40.2208 4348.00
40.286 3034.00
40.3512 2178.00
40.4164 1997.00
40.4816 1823.00
40.5468 1804.00
40.612 1798.00
40.6772 1667.00
40.7424 1668.00
40.8076 1728.00
40.8728 1577.00
40.938 1628.00
41.0032 1700.00
41.0684 1563.00
41.1336 1621.00
41.1988 1617.00
41.264 1614.00
41.3292 1640.00
41.3944 1644.00
41.4596 1717.00
41.5248 1606.00
41.59 1640.00
41.6552 1641.00
41.7204 1615.00
41.7856 1670.00
41.8508 1720.00
41.916 2004.00
41.9812 2240.00
42.0464 2042.00
42.1116 1871.00
42.1768 1700.00
42.242 1658.00
42.3072 1667.00
42.3724 1700.00
42.4376 1656.00
42.5028 1650.00
42.568 1590.00
42.6332 1671.00
42.6983 1563.00
42.7635 1698.00
42.8287 1574.00
42.8939 1551.00
42.9591 1627.00
43.0243 1676.00
43.0895 1594.00
43.1547 1714.00
43.2199 1673.00
43.2851 1807.00
43.3503 1684.00
43.4155 1808.00
43.4807 1895.00
43.5459 2108.00
43.6111 2652.00
43.6763 4133.00
43.7415 6367.00
43.8067 6277.00
43.8719 4994.00
43.9371 3326.00
44.0023 2156.00
44.0675 1951.00
44.1327 1764.00
44.1979 1740.00
44.2631 1616.00
44.3283 1646.00
44.3935 1644.00
44.4587 1619.00
44.5239 1704.00
44.5891 1635.00
44.6543 1580.00
44.7195 1592.00
44.7847 1561.00
44.8499 1608.00
44.9151 1561.00
44.9803 1517.00
45.0455 1585.00
45.1107 1578.00
45.1759 1596.00
45.2411 1604.00
45.3063 1649.00
45.3715 1568.00
45.4367 1577.00
45.5019 1555.00
45.5671 1571.00
45.6323 1585.00
45.6975 1533.00
45.7627 1526.00
45.8279 1610.00
45.8931 1467.00
45.9583 1561.00
46.0235 1510.00
46.0887 1568.00
46.1539 1542.00
46.2191 1572.00
46.2843 1515.00
46.3495 1504.00
46.4147 1600.00
46.4799 1527.00
46.5451 1642.00
46.6103 1682.00
46.6755 1561.00
46.7407 1677.00
46.8059 1646.00
46.8711 1657.00
46.9363 1725.00
47.0015 1871.00
47.0667 2211.00
47.1319 2860.00
47.1971 3236.00
47.2623 2733.00
47.3275 2463.00
47.3927 1960.00
47.4579 1823.00
47.523 1708.00
47.5882 1823.00
47.6534 1745.00
47.7186 1709.00
47.7838 1731.00
47.849 1698.00
47.9142 1685.00
47.9794 1817.00
48.0446 1774.00
48.1098 1832.00
48.175 1913.00
48.2402 2025.00
48.3054 2164.00
48.3706 2343.00
48.4358 2441.00
48.501 2996.00
48.5662 3675.00
48.6314 5647.00
48.6966 10782.00
48.7618 22079.00
48.827 26669.00
48.8922 18516.00
48.9574 14590.00
49.0226 6716.00
49.0878 3855.00
49.153 2950.00
49.2182 2344.00
49.2834 2268.00
49.3486 2156.00
49.4138 1979.00
49.479 1906.00
49.5442 1807.00
49.6094 1780.00
49.6746 1757.00
49.7398 1802.00
49.805 1613.00
49.8702 1652.00
49.9354 1664.00
50.0006 1650.00
50.0658 1591.00
50.131 1749.00
50.1962 1843.00
50.2614 1891.00
50.3266 2387.00
50.3918 2874.00
50.457 2660.00
50.5222 2369.00
50.5874 2028.00
50.6526 1786.00
50.7178 1688.00
50.783 1637.00
50.8482 1568.00
50.9134 1496.00
50.9786 1539.00
51.0438 1544.00
51.109 1478.00
51.1742 1620.00
51.2394 1583.00
51.3046 1615.00
51.3698 1621.00
51.435 1573.00
51.5002 1656.00
51.5654 1624.00
51.6306 1624.00
51.6958 1687.00
51.761 1662.00
51.8262 1738.00
51.8914 1869.00
51.9566 1683.00
52.0218 1697.00
52.087 1650.00
52.1522 1641.00
52.2174 1559.00
52.2826 1616.00
52.3477 1534.00
52.4129 1593.00
52.4781 1554.00
52.5433 1454.00
52.6085 1478.00
52.6737 1519.00
52.7389 1496.00
52.8041 1558.00
52.8693 1539.00
52.9345 1547.00
52.9997 1597.00
53.0649 1625.00
53.1301 1720.00
53.1953 1703.00
53.2605 1892.00
53.3257 2257.00
53.3909 3072.00
53.4561 4415.00
53.5213 4202.00
53.5865 3372.00
53.6517 2870.00
53.7169 2038.00
53.7821 1801.00
53.8473 1651.00
53.9125 1643.00
53.9777 1600.00
54.0429 1535.00
54.1081 1680.00
54.1733 1581.00
54.2385 1530.00
54.3037 1571.00
54.3689 1571.00
54.4341 1463.00
54.4993 1523.00
54.5645 1516.00
54.6297 1603.00
54.6949 1550.00
54.7601 1505.00
54.8253 1665.00
54.8905 1798.00
54.9557 2169.00
55.0209 2001.00
55.0861 1908.00
55.1513 1733.00
55.2165 1714.00
55.2817 1543.00
55.3469 1470.00
55.4121 1560.00
55.4773 1486.00
55.5425 1579.00
55.6077 1497.00
55.6729 1556.00
55.7381 1555.00
55.8033 1573.00
55.8685 1601.00
55.9337 1582.00
55.9989 1690.00
56.0641 1690.00
56.1293 1773.00
56.1945 1902.00
56.2597 2077.00
56.3249 2510.00
56.3901 3466.00
56.4553 3893.00
56.5205 2973.00
56.5857 2999.00
56.6509 2333.00
56.7161 1820.00
56.7813 1646.00
56.8465 1784.00
56.9117 1749.00
56.9769 1632.00
57.042 1743.00
57.1073 1654.00
57.1724 1756.00
57.2376 1671.00
57.3028 1751.00
57.368 1903.00
57.4332 2075.00
57.4984 2191.00
57.5636 2525.00
57.6288 2923.00
57.694 3920.00
57.7592 6737.00
57.8244 13078.00
57.8896 17478.00
57.9548 11732.00
58.02 10992.00
58.0852 7560.00
58.1504 3909.00
58.2156 2707.00
58.2808 2349.00
58.346 2022.00
58.4112 1836.00
58.4764 1710.00
58.5416 1769.00
58.6068 1710.00
58.672 1730.00
58.7372 1730.00
58.8024 1780.00
58.8676 1787.00
58.9328 1817.00
58.998 1813.00
59.0632 1922.00
59.1284 2259.00
59.1936 2906.00
59.2588 4488.00
59.324 4811.00
59.3892 3651.00
59.4544 3332.00
59.5196 2657.00
59.5848 2092.00
59.65 1832.00
59.7152 1662.00
59.7804 1656.00
59.8456 1772.00
59.9108 1646.00
59.976 1615.00
60.0412 1572.00
60.1064 1567.00
60.1716 1650.00
60.2368 1538.00
60.302 1624.00
60.3672 1590.00
60.4324 1741.00
60.4976 1803.00
60.5628 2319.00
60.628 3169.00
60.6932 4250.00
60.7584 3246.00
60.8236 2967.00
60.8888 2805.00
60.954 2027.00
61.0192 1719.00
61.0844 1625.00
61.1496 1661.00
61.2148 1577.00
61.28 1537.00
61.3452 1564.00
61.4104 1548.00
61.4756 1550.00
61.5408 1508.00
61.606 1544.00
61.6712 1597.00
61.7364 1558.00
61.8016 1602.00
61.8667 1705.00
61.932 1821.00
61.9971 2012.00
62.0623 2553.00
62.1275 2337.00
62.1927 2096.00
62.2579 2048.00
62.3231 1752.00
62.3883 1602.00
62.4535 1540.00
62.5187 1568.00
62.5839 1525.00
62.6491 1533.00
62.7143 1450.00
62.7795 1523.00
62.8447 1405.00
62.9099 1414.00
62.9751 1514.00
63.0403 1456.00
63.1055 1532.00
63.1707 1487.00
63.2359 1524.00
63.3011 1630.00
63.3663 1911.00
63.4315 2145.00
63.4967 1947.00
63.5619 1795.00
63.6271 1898.00
63.6923 1570.00
63.7575 1549.00
63.8227 1471.00
63.8879 1502.00
63.9531 1424.00
64.0183 1476.00
64.0835 1560.00
64.1487 1501.00
64.2139 1548.00
64.2791 1534.00
64.3443 1472.00
64.4095 1594.00
64.4747 1597.00
64.5399 1559.00
64.6051 1791.00
64.6703 2143.00
64.7355 2900.00
64.8007 3141.00
64.8659 2342.00
64.9311 2411.00
64.9963 2210.00
65.0615 1761.00
65.1267 1539.00
65.1919 1483.00
65.2571 1439.00
65.3223 1489.00
65.3875 1469.00
65.4527 1470.00
65.5179 1461.00
65.5831 1511.00
65.6483 1520.00
65.7135 1553.00
65.7787 1484.00
65.8439 1484.00
65.9091 1647.00
65.9743 1730.00
66.0395 1975.00
66.1047 2287.00
66.1699 1956.00
66.2351 1846.00
66.3003 1852.00
66.3655 1627.00
66.4307 1548.00
66.4959 1415.00
66.561 1354.00
66.6263 1433.00
66.6915 1396.00
66.7566 1397.00
66.8218 1383.00
66.887 1444.00
66.9522 1514.00
67.0174 1409.00
67.0826 1380.00
67.1478 1434.00
67.213 1400.00
67.2782 1438.00
67.3434 1364.00
67.4086 1459.00
67.4738 1441.00
67.539 1370.00
67.6042 1417.00
67.6694 1462.00
67.7346 1449.00
67.7998 1345.00
67.865 1461.00
67.9302 1328.00
67.9954 1386.00
68.0606 1432.00
68.1258 1411.00
68.191 1379.00
68.2562 1413.00
68.3214 1375.00
68.3866 1447.00
68.4518 1454.00
68.517 1362.00
68.5822 1383.00
68.6474 1376.00
68.7126 1360.00
68.7778 1437.00
68.843 1460.00
68.9082 1463.00
68.9734 1369.00
69.0386 1378.00
69.1038 1422.00
69.169 1349.00
69.2342 1382.00
69.2994 1431.00
69.3646 1467.00
69.4298 1467.00
69.495 1439.00
69.5602 1502.00
69.6254 1435.00
69.6906 1451.00
69.7558 1491.00
69.821 1544.00
69.8862 1735.00
69.9514 2119.00
70.0166 2555.00
70.0818 2183.00
70.147 1860.00
70.2122 2089.00
70.2774 1714.00
70.3426 1447.00
70.4078 1491.00
70.473 1495.00
70.5382 1451.00
70.6034 1420.00
70.6686 1460.00
70.7338 1423.00
70.799 1358.00
70.8642 1425.00
70.9294 1593.00
70.9946 1595.00
71.0598 1656.00
71.125 1862.00
71.1902 2264.00
71.2554 3170.00
71.3205 3499.00
71.3858 2602.00
71.451 2555.00
71.5162 2548.00
71.5813 1987.00
71.6465 1597.00
71.7117 1471.00
71.7769 1554.00
71.8421 1442.00
71.9073 1522.00
71.9725 1425.00
72.0377 1562.00
72.1029 1480.00
72.1681 1457.00
72.2333 1499.00
72.2985 1496.00
72.3637 1630.00
72.4289 1754.00
72.4941 2390.00
72.5593 3173.00
72.6245 2725.00
72.6897 2324.00
72.7549 2281.00
72.8201 2173.00
72.8853 1830.00
72.9505 1487.00
73.0157 1418.00
73.0809 1488.00
73.1461 1462.00
73.2113 1431.00
73.2765 1431.00
73.3417 1415.00
73.4069 1392.00
73.4721 1464.00
73.5373 1435.00
73.6025 1511.00
73.6677 1602.00
73.7329 1694.00
73.7981 2233.00
73.8633 2216.00
73.9285 1856.00
73.9937 1895.00
74.0589 1826.00
74.1241 1671.00
74.1893 1557.00
74.2545 1435.00
74.3197 1425.00
74.3849 1375.00
74.4501 1461.00
74.5153 1403.00
74.5805 1520.00
74.6457 1360.00
74.7109 1448.00
74.7761 1489.00
74.8413 1473.00
74.9065 1677.00
74.9717 1888.00
75.0369 2147.00
75.1021 2296.00
75.1673 2083.00
75.2325 1831.00
75.2977 1991.00
75.3629 1809.00
75.4281 1549.00
75.4933 1511.00
75.5585 1370.00
75.6237 1357.00
75.6889 1440.00
75.7541 1406.00
75.8193 1459.00
75.8845 1387.00
75.9497 1451.00
76.0149 1444.00
76.0801 1411.00
76.1452 1483.00
76.2104 1650.00
76.2756 1747.00
76.3409 1984.00
76.406 1765.00
76.4712 1679.00
76.5364 1746.00
76.6016 1652.00
76.6668 1470.00
76.732 1411.00
76.7972 1434.00
76.8624 1393.00
76.9276 1368.00
76.9928 1381.00
77.058 1474.00
77.1232 1444.00
77.1884 1418.00
77.2536 1566.00
77.3188 1531.00
77.384 1611.00
77.4492 1969.00
77.5144 2447.00
77.5796 2957.00
77.6448 2324.00
77.71 2122.00
77.7752 2164.00
77.8404 2188.00
77.9056 1775.00
77.9708 1517.00
78.036 1387.00
78.1012 1386.00
78.1664 1458.00
78.2316 1429.00
78.2968 1446.00
78.362 1470.00
78.4272 1529.00
78.4924 1565.00
78.5576 1762.00
78.6228 2025.00
78.688 2623.00
78.7532 4023.00
78.8184 4863.00
78.8836 3593.00
78.9488 3002.00
79.014 3263.00
79.0792 2934.00
79.1444 2088.00
79.2096 1754.00
79.2748 1608.00
79.34 1571.00
79.4052 1453.00
79.4704 1458.00
79.5356 1382.00
79.6008 1404.00
79.666 1408.00
79.7312 1360.00
79.7964 1441.00
79.8616 1390.00
79.9268 1461.00
79.992 1410.00
80.0572 1415.00
80.1224 1342.00
80.1876 1334.00
80.2528 1450.00
80.318 1418.00
80.3832 1403.00
80.4484 1315.00
80.5136 1341.00
80.5788 1394.00
80.644 1379.00
80.7092 1339.00
80.7744 1358.00
80.8396 1463.00
80.9048 1430.00
80.9699 1579.00
81.0351 1593.00
81.1003 1842.00
81.1655 2419.00
81.2307 3327.00
81.2959 3438.00
81.3611 2554.00
81.4263 2332.00
81.4915 2519.00
81.5567 2186.00
81.6219 1752.00
81.6871 1564.00
81.7523 1454.00
81.8175 1471.00
81.8827 1445.00
81.9479 1395.00
82.0131 1394.00
82.0783 1430.00
82.1435 1399.00
82.2087 1437.00
82.2739 1386.00
82.3391 1526.00
82.4043 1569.00
82.4695 1739.00
82.5347 1764.00
82.5999 1562.00
82.6651 1487.00
82.7303 1630.00
82.7955 1555.00
82.8607 1396.00
82.9259 1357.00
82.9911 1391.00
83.0563 1439.00
83.1215 1323.00
83.1867 1425.00
83.2519 1376.00
83.3171 1360.00
83.3823 1350.00
83.4475 1351.00
83.5127 1442.00
83.5779 1573.00
83.6431 1657.00
83.7083 1824.00
83.7735 1740.00
83.8387 1547.00
83.9039 1526.00
83.9691 1554.00
84.0343 1483.00
84.0995 1439.00
84.1647 1395.00
84.2299 1325.00
84.2951 1414.00
84.3603 1371.00
84.4255 1343.00
84.4907 1372.00
84.5559 1396.00
84.6211 1496.00
84.6863 1532.00
84.7515 1691.00
84.8167 1820.00
84.8819 2282.00
84.9471 2155.00
85.0123 1946.00
85.0775 1716.00
85.1427 1952.00
85.2079 1833.00
85.2731 1528.00
85.3383 1461.00
85.4035 1314.00
85.4687 1423.00
85.5339 1351.00
85.5991 1291.00
85.6643 1388.00
85.7295 1309.00
85.7946 1405.00
85.8598 1311.00
85.925 1386.00
85.9903 1311.00
86.0554 1345.00
86.1206 1386.00
86.1858 1402.00
86.251 1449.00
86.3162 1395.00
86.3814 1398.00
86.4466 1355.00
86.5118 1384.00
86.577 1313.00
86.6422 1322.00
86.7074 1400.00
86.7726 1406.00
86.8378 1430.00
86.903 1385.00
86.9682 1413.00
87.0334 1398.00
87.0986 1489.00
87.1638 1638.00
87.229 1842.00
87.2942 2245.00
87.3594 2287.00
87.4246 1940.00
87.4898 1765.00
87.555 1816.00
87.6202 1893.00
87.6854 1662.00
87.7506 1554.00
87.8158 1390.00
87.881 1395.00
87.9462 1408.00
88.0114 1379.00
88.0766 1252.00
88.1418 1262.00
88.207 1302.00
88.2722 1287.00
88.3374 1275.00
88.4026 1290.00
88.4678 1359.00
88.533 1415.00
88.5982 1358.00
88.6634 1399.00
88.7286 1295.00
88.7938 1325.00
88.859 1323.00
88.9242 1348.00
88.9894 1364.00
89.0546 1384.00
89.1198 1354.00
89.185 1380.00
89.2502 1442.00
89.3154 1339.00
89.3806 1453.00
89.4458 1391.00
89.511 1509.00
89.5762 1551.00
89.6414 1764.00
89.7066 2293.00
89.7718 2341.00
89.837 1916.00
89.9022 1712.00
89.9674 1823.00
90.0326 2015.00
90.0978 1699.00
90.163 1559.00
90.2282 1476.00
90.2934 1417.00
90.3586 1430.00
90.4238 1404.00
90.489 1470.00
90.5542 1472.00
90.6193 1529.00
90.6845 1655.00
90.7497 1727.00
90.8149 2143.00
90.8801 2899.00
90.9453 3581.00
91.0105 3100.00
91.0757 2299.00
91.1409 2242.00
91.2061 2614.00
91.2713 2365.00
91.3365 1910.00
91.4017 1653.00
91.4669 1492.00
91.5321 1497.00
91.5973 1392.00
91.6625 1430.00
91.7277 1391.00
91.7929 1412.00
91.8581 1496.00
91.9233 1594.00
91.9885 1623.00
92.0537 1815.00
92.1189 2203.00
92.1841 2395.00
92.2493 1963.00
92.3145 1713.00
92.3797 1797.00
92.4449 1861.00
92.5101 1765.00
92.5753 1507.00
92.6405 1441.00
92.7057 1406.00
92.7709 1359.00
92.8361 1473.00
92.9013 1407.00
92.9665 1404.00
93.0317 1368.00
93.0969 1443.00
93.1621 1516.00
93.2273 1550.00
93.2925 1730.00
93.3577 1993.00
93.4229 1830.00
93.4881 1674.00
93.5533 1569.00
93.6185 1636.00
93.6837 1670.00
93.7489 1536.00
93.8141 1516.00
93.8793 1410.00
93.9445 1408.00
94.0097 1408.00
94.0749 1326.00
94.1401 1327.00
94.2053 1403.00
94.2705 1337.00
94.3357 1325.00
94.4009 1426.00
94.4661 1462.00
94.5313 1539.00
94.5965 1643.00
94.6617 1546.00
94.7269 1454.00
94.7921 1453.00
94.8573 1386.00
94.9225 1525.00
94.9877 1413.00
95.0529 1287.00
95.1181 1368.00
95.1833 1302.00
95.2485 1374.00
95.3137 1390.00
95.3789 1434.00
95.444 1461.00
95.5092 1517.00
95.5744 1505.00
95.6396 1771.00
95.7048 2182.00
95.77 2751.00
95.8352 2469.00
95.9004 1986.00
95.9656 1885.00
96.0308 1882.00
96.096 2143.00
96.1612 1945.00
96.2264 1639.00
96.2916 1436.00
96.3568 1406.00
96.422 1423.00
96.4872 1355.00
96.5524 1346.00
96.6176 1330.00
96.6828 1384.00
96.748 1347.00
96.8132 1409.00
96.8784 1503.00
96.9436 1745.00
97.0088 1685.00
97.074 1617.00
97.1392 1482.00
97.2044 1505.00
97.2696 1467.00
97.3348 1497.00
97.4 1441.00
97.4652 1359.00
97.5304 1432.00
97.5956 1411.00
97.6608 1336.00
97.726 1376.00
97.7912 1394.00
97.8564 1420.00
97.9216 1493.00
97.9868 1563.00
98.052 1915.00
98.1172 2437.00
98.1824 2948.00
98.2476 3160.00
98.3128 2419.00
98.378 1997.00
98.4432 2084.00
98.5084 2325.00
98.5736 2197.00
98.6388 1892.00
98.704 1749.00
98.7692 1562.00
98.8344 1493.00
98.8996 1489.00
98.9648 1538.00
99.03 1445.00
99.0952 1448.00
99.1604 1499.00
99.2256 1571.00
99.2908 1775.00
99.356 2086.00
99.4212 2525.00
99.4864 2321.00
99.5516 1940.00
99.6168 1902.00
99.682 1833.00
99.7472 2027.00
99.8124 1914.00
99.8776 1599.00
99.9428 1411.00
100.008 1420.00
100.073 1358.00
100.095 1392.00