File: data/xrd_creation/results/PG_2251-1.xy
9.903433 2412.00
9.968632 2326.00
10.0338 2353.00
10.099 2333.00
10.1642 2390.00
10.2294 2238.00
10.2946 2327.00
10.3598 2286.00
10.425 2197.00
10.4902 2220.00
10.5554 2184.00
10.6206 2136.00
10.6858 2069.00
10.751 2182.00
10.8162 2114.00
10.8814 2155.00
10.9466 2147.00
11.0118 2075.00
11.077 2068.00
11.1422 2037.00
11.2074 2077.00
11.2726 2027.00
11.3378 2022.00
11.403 1972.00
11.4682 2007.00
11.5334 1963.00
11.5986 2029.00
11.6638 1952.00
11.729 1921.00
11.7942 1948.00
11.8594 1892.00
11.9246 1875.00
11.9898 1869.00
12.055 1798.00
12.1202 1845.00
12.1854 1783.00
12.2506 1772.00
12.3158 1802.00
12.381 1792.00
12.4462 1758.00
12.5114 1784.00
12.5766 1836.00
12.6418 1830.00
12.707 1742.00
12.7722 1766.00
12.8374 1759.00
12.9026 1740.00
12.9678 1716.00
13.033 1613.00
13.0982 1774.00
13.1634 1620.00
13.2286 1659.00
13.2938 1679.00
13.359 1662.00
13.4242 1652.00
13.4894 1651.00
13.5546 1573.00
13.6198 1574.00
13.685 1652.00
13.7502 1561.00
13.8154 1547.00
13.8805 1642.00
13.9457 1563.00
14.0109 1536.00
14.0761 1562.00
14.1413 1470.00
14.2065 1490.00
14.2717 1489.00
14.3369 1549.00
14.4021 1540.00
14.4673 1511.00
14.5325 1482.00
14.5977 1505.00
14.6629 1474.00
14.7281 1523.00
14.7933 1452.00
14.8585 1498.00
14.9237 1509.00
14.9889 1464.00
15.0541 1462.00
15.1193 1475.00
15.1845 1485.00
15.2497 1438.00
15.3149 1382.00
15.3801 1445.00
15.4453 1445.00
15.5105 1459.00
15.5757 1480.00
15.6409 1382.00
15.7061 1297.00
15.7713 1455.00
15.8365 1422.00
15.9017 1337.00
15.9669 1348.00
16.0321 1395.00
16.0973 1420.00
16.1625 1316.00
16.2277 1338.00
16.2929 1328.00
16.3581 1348.00
16.4233 1358.00
16.4885 1374.00
16.5537 1362.00
16.6189 1406.00
16.6841 1392.00
16.7493 1395.00
16.8145 1302.00
16.8797 1290.00
16.9449 1323.00
17.0101 1308.00
17.0753 1309.00
17.1405 1233.00
17.2057 1298.00
17.2709 1278.00
17.3361 1295.00
17.4013 1307.00
17.4665 1227.00
17.5317 1293.00
17.5969 1257.00
17.6621 1230.00
17.7273 1254.00
17.7925 1232.00
17.8577 1230.00
17.9229 1179.00
17.9881 1218.00
18.0533 1220.00
18.1185 1188.00
18.1837 1243.00
18.2489 1192.00
18.3141 1208.00
18.3793 1187.00
18.4445 1195.00
18.5097 1158.00
18.5749 1140.00
18.6401 1148.00
18.7052 1153.00
18.7704 1179.00
18.8356 1101.00
18.9008 1164.00
18.966 1153.00
19.0312 1103.00
19.0964 1037.00
19.1616 1179.00
19.2268 1161.00
19.292 1203.00
19.3572 1091.00
19.4224 1108.00
19.4876 1112.00
19.5528 1198.00
19.618 1099.00
19.6832 1159.00
19.7484 1093.00
19.8136 1102.00
19.8788 1001.00
19.944 1089.00
20.0092 1059.00
20.0744 1063.00
20.1396 1059.00
20.2048 1030.00
20.27 1036.00
20.3352 1045.00
20.4004 1044.00
20.4656 1032.00
20.5308 1006.00
20.596 1020.00
20.6612 1059.00
20.7264 1058.00
20.7916 970.00
20.8568 1052.00
20.922 975.00
20.9872 1033.00
21.0524 1083.00
21.1176 1057.00
21.1828 1110.00
21.248 1054.00
21.3132 1099.00
21.3784 1115.00
21.4436 1157.00
21.5088 1437.00
21.574 1873.00
21.6392 2566.00
21.7044 3692.00
21.7696 5079.00
21.8348 3385.00
21.9 1528.00
21.9652 1103.00
22.0304 1082.00
22.0956 1086.00
22.1608 1025.00
22.226 1033.00
22.2912 978.00
22.3564 988.00
22.4216 974.00
22.4868 979.00
22.552 960.00
22.6172 943.00
22.6824 976.00
22.7476 1018.00
22.8128 938.00
22.878 959.00
22.9432 907.00
23.0084 944.00
23.0736 902.00
23.1388 961.00
23.204 896.00
23.2692 913.00
23.3344 955.00
23.3996 937.00
23.4647 926.00
23.5299 930.00
23.5951 984.00
23.6603 1042.00
23.7255 1157.00
23.7907 1329.00
23.8559 1567.00
23.9211 1461.00
23.9863 1108.00
24.0515 954.00
24.1167 914.00
24.1819 954.00
24.2471 933.00
24.3123 896.00
24.3775 857.00
24.4427 894.00
24.5079 869.00
24.5731 882.00
24.6383 894.00
24.7035 868.00
24.7687 848.00
24.8339 823.00
24.8991 835.00
24.9643 829.00
25.0295 855.00
25.0947 843.00
25.1599 906.00
25.2251 798.00
25.2903 859.00
25.3555 844.00
25.4207 823.00
25.4859 828.00
25.5511 824.00
25.6163 782.00
25.6815 821.00
25.7467 877.00
25.8119 834.00
25.8771 840.00
25.9423 797.00
26.0075 846.00
26.0727 830.00
26.1379 883.00
26.2031 856.00
26.2683 810.00
26.3335 840.00
26.3987 797.00
26.4639 807.00
26.5291 781.00
26.5943 799.00
26.6595 756.00
26.7247 784.00
26.7899 738.00
26.8551 774.00
26.9203 808.00
26.9855 800.00
27.0507 791.00
27.1159 823.00
27.1811 758.00
27.2463 809.00
27.3115 778.00
27.3767 811.00
27.4419 764.00
27.5071 777.00
27.5723 779.00
27.6375 810.00
27.7027 793.00
27.7679 775.00
27.8331 783.00
27.8983 759.00
27.9635 751.00
28.0287 777.00
28.0939 785.00
28.1591 781.00
28.2243 755.00
28.2894 795.00
28.3546 762.00
28.4198 778.00
28.485 755.00
28.5502 730.00
28.6154 757.00
28.6806 754.00
28.7458 762.00
28.811 729.00
28.8762 776.00
28.9414 892.00
29.0066 853.00
29.0718 895.00
29.137 858.00
29.2022 770.00
29.2674 793.00
29.3326 770.00
29.3978 775.00
29.463 800.00
29.5282 830.00
29.5934 811.00
29.6586 914.00
29.7238 1063.00
29.789 1501.00
29.8542 1846.00
29.9194 1790.00
29.9846 1369.00
30.0498 976.00
30.115 942.00
30.1802 788.00
30.2454 836.00
30.3106 837.00
30.3758 842.00
30.441 837.00
30.5062 813.00
30.5714 841.00
30.6366 953.00
30.7018 1020.00
30.767 1241.00
30.8322 1540.00
30.8974 2438.00
30.9626 3707.00
31.0278 4713.00
31.093 3930.00
31.1582 2430.00
31.2234 1449.00
31.2886 1316.00
31.3538 1211.00
31.419 1324.00
31.4842 1380.00
31.5494 1373.00
31.6146 1450.00
31.6798 1600.00
31.745 1925.00
31.8102 2314.00
31.8754 3123.00
31.9406 5012.00
32.0058 9660.00
32.071 20442.00
32.1362 39112.00
32.2014 55167.00
32.2666 35788.00
32.3318 15787.00
32.397 5435.00
32.4622 3224.00
32.5274 2275.00
32.5926 1795.00
32.6578 1462.00
32.723 1321.00
32.7882 1172.00
32.8534 1132.00
32.9186 1127.00
32.9838 1194.00
33.0489 1228.00
33.1141 1155.00
33.1793 1091.00
33.2445 954.00
33.3097 957.00
33.3749 930.00
33.4401 917.00
33.5053 992.00
33.5705 929.00
33.6357 1030.00
33.7009 1076.00
33.7661 1088.00
33.8313 1046.00
33.8965 1061.00
33.9617 1054.00
34.0269 1098.00
34.0921 1107.00
34.1573 1089.00
34.2225 1230.00
34.2877 1467.00
34.3529 1743.00
34.4181 2281.00
34.4833 3067.00
34.5485 3769.00
34.6137 4825.00
34.6789 7926.00
34.7441 16548.00
34.8093 31027.00
34.8745 33066.00
34.9397 18334.00
35.0049 6067.00
35.0701 2517.00
35.1353 1966.00
35.2005 1582.00
35.2657 1375.00
35.3309 1310.00
35.3961 1348.00
35.4613 1322.00
35.5265 1366.00
35.5917 1347.00
35.6569 1328.00
35.7221 1397.00
35.7873 1332.00
35.8525 1412.00
35.9177 1486.00
35.9829 1533.00
36.0481 1693.00
36.1133 1994.00
36.1785 2307.00
36.2437 2783.00
36.3089 3464.00
36.3741 5083.00
36.4393 9172.00
36.5045 18336.00
36.5697 36870.00
36.6349 68669.00
36.7001 76433.00
36.7653 44653.00
36.8305 17223.00
36.8957 6234.00
36.9609 3927.00
37.0261 3000.00
37.0913 2318.00
37.1565 2012.00
37.2217 2067.00
37.2869 2398.00
37.3521 3029.00
37.4173 2918.00
37.4825 2110.00
37.5477 1488.00
37.6129 1178.00
37.6781 1152.00
37.7433 1086.00
37.8085 1065.00
37.8736 1028.00
37.9388 915.00
38.004 959.00
38.0692 971.00
38.1344 965.00
38.1996 916.00
38.2648 917.00
38.33 897.00
38.3952 855.00
38.4604 845.00
38.5256 844.00
38.5908 852.00
38.656 824.00
38.7212 792.00
38.7864 786.00
38.8516 798.00
38.9168 841.00
38.982 791.00
39.0472 799.00
39.1124 811.00
39.1776 771.00
39.2428 774.00
39.308 813.00
39.3732 811.00
39.4384 823.00
39.5036 834.00
39.5688 808.00
39.634 803.00
39.6992 773.00
39.7644 877.00
39.8296 1036.00
39.8948 1272.00
39.96 1636.00
40.0252 1674.00
40.0904 1296.00
40.1556 1059.00
40.2208 1023.00
40.286 1142.00
40.3512 1361.00
40.4164 1101.00
40.4816 937.00
40.5468 829.00
40.612 753.00
40.6772 701.00
40.7424 712.00
40.8076 733.00
40.8728 724.00
40.938 656.00
41.0032 672.00
41.0684 664.00
41.1336 730.00
41.1988 607.00
41.264 669.00
41.3292 638.00
41.3944 625.00
41.4596 617.00
41.5248 633.00
41.59 606.00
41.6552 673.00
41.7204 627.00
41.7856 588.00
41.8508 597.00
41.916 613.00
41.9812 635.00
42.0464 668.00
42.1116 607.00
42.1768 648.00
42.242 554.00
42.3072 630.00
42.3724 605.00
42.4376 596.00
42.5028 611.00
42.568 606.00
42.6332 598.00
42.6983 576.00
42.7635 633.00
42.8287 635.00
42.8939 558.00
42.9591 689.00
43.0243 663.00
43.0895 837.00
43.1547 787.00
43.2199 664.00
43.2851 681.00
43.3503 530.00
43.4155 638.00
43.4807 569.00
43.5459 595.00
43.6111 577.00
43.6763 638.00
43.7415 744.00
43.8067 821.00
43.8719 967.00
43.9371 816.00
44.0023 792.00
44.0675 625.00
44.1327 561.00
44.1979 555.00
44.2631 657.00
44.3283 642.00
44.3935 554.00
44.4587 559.00
44.5239 562.00
44.5891 575.00
44.6543 541.00
44.7195 511.00
44.7847 549.00
44.8499 525.00
44.9151 525.00
44.9803 550.00
45.0455 606.00
45.1107 574.00
45.1759 545.00
45.2411 573.00
45.3063 613.00
45.3715 559.00
45.4367 607.00
45.5019 574.00
45.5671 622.00
45.6323 556.00
45.6975 577.00
45.7627 578.00
45.8279 530.00
45.8931 548.00
45.9583 517.00
46.0235 580.00
46.0887 542.00
46.1539 549.00
46.2191 557.00
46.2843 607.00
46.3495 585.00
46.4147 582.00
46.4799 653.00
46.5451 562.00
46.6103 562.00
46.6755 582.00
46.7407 588.00
46.8059 586.00
46.8711 613.00
46.9363 518.00
47.0015 617.00
47.0667 602.00
47.1319 634.00
47.1971 637.00
47.2623 663.00
47.3275 793.00
47.3927 768.00
47.4579 871.00
47.523 950.00
47.5882 1165.00
47.6534 1491.00
47.7186 2292.00
47.7838 4103.00
47.849 8524.00
47.9142 16150.00
47.9794 15489.00
48.0446 10195.00
48.1098 6370.00
48.175 2214.00
48.2402 1411.00
48.3054 1103.00
48.3706 979.00
48.4358 802.00
48.501 745.00
48.5662 716.00
48.6314 703.00
48.6966 667.00
48.7618 606.00
48.827 631.00
48.8922 677.00
48.9574 738.00
49.0226 927.00
49.0878 1192.00
49.153 1296.00
49.2182 1163.00
49.2834 1001.00
49.3486 807.00
49.4138 700.00
49.479 637.00
49.5442 553.00
49.6094 586.00
49.6746 514.00
49.7398 502.00
49.805 562.00
49.8702 521.00
49.9354 567.00
50.0006 560.00
50.0658 499.00
50.131 509.00
50.1962 516.00
50.2614 521.00
50.3266 550.00
50.3918 499.00
50.457 557.00
50.5222 590.00
50.5874 638.00
50.6526 680.00
50.7178 679.00
50.783 618.00
50.8482 585.00
50.9134 532.00
50.9786 535.00
51.0438 600.00
51.109 595.00
51.1742 570.00
51.2394 501.00
51.3046 511.00
51.3698 534.00
51.435 484.00
51.5002 541.00
51.5654 557.00
51.6306 500.00
51.6958 476.00
51.761 511.00
51.8262 462.00
51.8914 490.00
51.9566 517.00
52.0218 527.00
52.087 473.00
52.1522 468.00
52.2174 511.00
52.2826 515.00
52.3477 484.00
52.4129 530.00
52.4781 500.00
52.5433 510.00
52.6085 468.00
52.6737 495.00
52.7389 512.00
52.8041 491.00
52.8693 480.00
52.9345 463.00
52.9997 469.00
53.0649 503.00
53.1301 468.00
53.1953 485.00
53.2605 513.00
53.3257 459.00
53.3909 465.00
53.4561 482.00
53.5213 467.00
53.5865 461.00
53.6517 454.00
53.7169 488.00
53.7821 537.00
53.8473 510.00
53.9125 521.00
53.9777 504.00
54.0429 467.00
54.1081 509.00
54.1733 502.00
54.2385 493.00
54.3037 534.00
54.3689 515.00
54.4341 445.00
54.4993 490.00
54.5645 484.00
54.6297 483.00
54.6949 450.00
54.7601 513.00
54.8253 520.00
54.8905 520.00
54.9557 569.00
55.0209 551.00
55.0861 557.00
55.1513 590.00
55.2165 564.00
55.2817 507.00
55.3469 604.00
55.4121 634.00
55.4773 542.00
55.5425 562.00
55.6077 556.00
55.6729 576.00
55.7381 624.00
55.8033 536.00
55.8685 585.00
55.9337 594.00
55.9989 615.00
56.0641 658.00
56.1293 665.00
56.1945 649.00
56.2597 727.00
56.3249 753.00
56.3901 861.00
56.4553 927.00
56.5205 1093.00
56.5857 1386.00
56.6509 1688.00
56.7161 2359.00
56.7813 3778.00
56.8465 7572.00
56.9117 16394.00
56.9769 26607.00
57.042 16432.00
57.1073 14016.00
57.1724 10432.00
57.2376 3524.00
57.3028 2038.00
57.368 1402.00
57.4332 1077.00
57.4984 956.00
57.5636 783.00
57.6288 799.00
57.694 737.00
57.7592 715.00
57.8244 750.00
57.8896 717.00
57.9548 711.00
58.02 816.00
58.0852 977.00
58.1504 936.00
58.2156 767.00
58.2808 810.00
58.346 711.00
58.4112 709.00
58.4764 660.00
58.5416 710.00
58.6068 739.00
58.672 798.00
58.7372 763.00
58.8024 729.00
58.8676 778.00
58.9328 762.00
58.998 759.00
59.0632 791.00
59.1284 722.00
59.1936 809.00
59.2588 859.00
59.324 880.00
59.3892 884.00
59.4544 756.00
59.5196 782.00
59.5848 673.00
59.65 620.00
59.7152 670.00
59.7804 590.00
59.8456 618.00
59.9108 718.00
59.976 738.00
60.0412 925.00
60.1064 1087.00
60.1716 1003.00
60.2368 942.00
60.302 840.00
60.3672 673.00
60.4324 591.00
60.4976 553.00
60.5628 544.00
60.628 527.00
60.6932 578.00
60.7584 553.00
60.8236 583.00
60.8888 624.00
60.954 612.00
61.0192 681.00
61.0844 639.00
61.1496 636.00
61.2148 611.00
61.28 676.00
61.3452 741.00
61.4104 745.00
61.4756 862.00
61.5408 763.00
61.606 793.00
61.6712 825.00
61.7364 834.00
61.8016 792.00
61.8667 814.00
61.932 803.00
61.9971 772.00
62.0623 702.00
62.1275 683.00
62.1927 751.00
62.2579 680.00
62.3231 761.00
62.3883 719.00
62.4535 712.00
62.5187 748.00
62.5839 778.00
62.6491 868.00
62.7143 946.00
62.7795 1111.00
62.8447 1276.00
62.9099 1641.00
62.9751 2376.00
63.0403 3676.00
63.1055 7334.00
63.1707 15788.00
63.2359 23044.00
63.3011 12062.00
63.3663 11266.00
63.4315 10185.00
63.4967 3593.00
63.5619 1903.00
63.6271 1401.00
63.6923 1242.00
63.7575 1057.00
63.8227 963.00
63.8879 887.00
63.9531 879.00
64.0183 870.00
64.0835 764.00
64.1487 749.00
64.2139 652.00
64.2791 663.00
64.3443 635.00
64.4095 595.00
64.4747 612.00
64.5399 593.00
64.6051 597.00
64.6703 579.00
64.7355 599.00
64.8007 565.00
64.8659 563.00
64.9311 616.00
64.9963 570.00
65.0615 529.00
65.1267 604.00
65.1919 612.00
65.2571 632.00
65.3223 582.00
65.3875 621.00
65.4527 679.00
65.5179 635.00
65.5831 608.00
65.6483 638.00
65.7135 696.00
65.7787 813.00
65.8439 886.00
65.9091 712.00
65.9743 713.00
66.0395 760.00
66.1047 677.00
66.1699 618.00
66.2351 669.00
66.3003 692.00
66.3655 743.00
66.4307 817.00
66.4959 879.00
66.561 1193.00
66.6263 1726.00
66.6915 3225.00
66.7566 3914.00
66.8218 2195.00
66.887 2203.00
66.9522 2223.00
67.0174 1147.00
67.0826 799.00
67.1478 722.00
67.213 756.00
67.2782 677.00
67.3434 678.00
67.4086 752.00
67.4738 728.00
67.539 826.00
67.6042 747.00
67.6694 839.00
67.7346 856.00
67.7998 1055.00
67.865 1170.00
67.9302 1329.00
67.9954 1600.00
68.0606 2078.00
68.1258 3454.00
68.191 6727.00
68.2562 13886.00
68.3214 18501.00
68.3866 9214.00
68.4518 8958.00
68.517 9570.00
68.5822 3918.00
68.6474 1918.00
68.7126 1220.00
68.7778 1109.00
68.843 965.00
68.9082 943.00
68.9734 950.00
69.0386 949.00
69.1038 1102.00
69.169 1305.00
69.2342 1677.00
69.2994 2824.00
69.3646 5420.00
69.4298 9193.00
69.495 6563.00
69.5602 4157.00
69.6254 5196.00
69.6906 3523.00
69.7558 1565.00
69.821 1077.00
69.8862 867.00
69.9514 798.00
70.0166 703.00
70.0818 690.00
70.147 649.00
70.2122 659.00
70.2774 605.00
70.3426 603.00
70.4078 558.00
70.473 555.00
70.5382 529.00
70.6034 554.00
70.6686 567.00
70.7338 557.00
70.799 556.00
70.8642 559.00
70.9294 561.00
70.9946 556.00
71.0598 561.00
71.125 527.00
71.1902 492.00
71.2554 494.00
71.3205 512.00
71.3858 495.00
71.451 499.00
71.5162 491.00
71.5813 532.00
71.6465 502.00
71.7117 518.00
71.7769 516.00
71.8421 510.00
71.9073 514.00
71.9725 520.00
72.0377 574.00
72.1029 551.00
72.1681 556.00
72.2333 557.00
72.2985 612.00
72.3637 561.00
72.4289 567.00
72.4941 598.00
72.5593 530.00
72.6245 599.00
72.6897 685.00
72.7549 785.00
72.8201 1085.00
72.8853 1897.00
72.9505 1695.00
73.0157 988.00
73.0809 1104.00
73.1461 1165.00
73.2113 698.00
73.2765 546.00
73.3417 519.00
73.4069 518.00
73.4721 473.00
73.5373 484.00
73.6025 500.00
73.6677 498.00
73.7329 474.00
73.7981 483.00
73.8633 487.00
73.9285 576.00
73.9937 536.00
74.0589 567.00
74.1241 561.00
74.1893 588.00
74.2545 620.00
74.3197 633.00
74.3849 563.00
74.4501 525.00
74.5153 529.00
74.5805 560.00
74.6457 490.00
74.7109 469.00
74.7761 480.00
74.8413 466.00
74.9065 462.00
74.9717 459.00
75.0369 459.00
75.1021 502.00
75.1673 469.00
75.2325 529.00
75.2977 590.00
75.3629 521.00
75.4281 539.00
75.4933 541.00
75.5585 501.00
75.6237 505.00
75.6889 508.00
75.7541 525.00
75.8193 469.00
75.8845 485.00
75.9497 481.00
76.0149 500.00
76.0801 450.00
76.1452 451.00
76.2104 465.00
76.2756 461.00
76.3409 468.00
76.406 464.00
76.4712 456.00
76.5364 442.00
76.6016 458.00
76.6668 465.00
76.732 471.00
76.7972 515.00
76.8624 575.00
76.9276 580.00
76.9928 601.00
77.058 698.00
77.1232 882.00
77.1884 1558.00
77.2536 2673.00
77.3188 3022.00
77.384 1624.00
77.4492 1468.00
77.5144 1834.00
77.5796 1207.00
77.6448 740.00
77.71 565.00
77.7752 559.00
77.8404 490.00
77.9056 518.00
77.9708 470.00
78.036 472.00
78.1012 479.00
78.1664 410.00
78.2316 456.00
78.2968 415.00
78.362 446.00
78.4272 450.00
78.4924 433.00
78.5576 445.00
78.6228 431.00
78.688 435.00
78.7532 401.00
78.8184 408.00
78.8836 431.00
78.9488 455.00
79.014 420.00
79.0792 406.00
79.1444 425.00
79.2096 431.00
79.2748 415.00
79.34 419.00
79.4052 420.00
79.4704 441.00
79.5356 417.00
79.6008 399.00
79.666 466.00
79.7312 407.00
79.7964 370.00
79.8616 400.00
79.9268 390.00
79.992 386.00
80.0572 422.00
80.1224 424.00
80.1876 394.00
80.2528 368.00
80.318 410.00
80.3832 414.00
80.4484 437.00
80.5136 457.00
80.5788 450.00
80.644 438.00
80.7092 381.00
80.7744 401.00
80.8396 390.00
80.9048 408.00
80.9699 432.00
81.0351 425.00
81.1003 417.00
81.1655 454.00
81.2307 473.00
81.2959 498.00
81.3611 511.00
81.4263 518.00
81.4915 589.00
81.5567 753.00
81.6219 1108.00
81.6871 1746.00
81.7523 1533.00
81.8175 975.00
81.8827 935.00
81.9479 1124.00
82.0131 839.00
82.0783 588.00
82.1435 529.00
82.2087 500.00
82.2739 452.00
82.3391 447.00
82.4043 443.00
82.4695 428.00
82.5347 434.00
82.5999 408.00
82.6651 467.00
82.7303 403.00
82.7955 378.00
82.8607 396.00
82.9259 419.00
82.9911 425.00
83.0563 419.00
83.1215 382.00
83.1867 372.00
83.2519 417.00
83.3171 433.00
83.3823 413.00
83.4475 443.00
83.5127 382.00
83.5779 429.00
83.6431 425.00
83.7083 419.00
83.7735 415.00
83.8387 369.00
83.9039 383.00
83.9691 391.00
84.0343 471.00
84.0995 416.00
84.1647 431.00
84.2299 398.00
84.2951 386.00
84.3603 436.00
84.4255 397.00
84.4907 399.00
84.5559 402.00
84.6211 402.00
84.6863 397.00
84.7515 417.00
84.8167 367.00
84.8819 419.00
84.9471 402.00
85.0123 393.00
85.0775 399.00
85.1427 402.00
85.2079 404.00
85.2731 432.00
85.3383 403.00
85.4035 440.00
85.4687 410.00
85.5339 393.00
85.5991 389.00
85.6643 430.00
85.7295 439.00
85.7946 433.00
85.8598 401.00
85.925 436.00
85.9903 395.00
86.0554 460.00
86.1206 412.00
86.1858 450.00
86.251 430.00
86.3162 417.00
86.3814 458.00
86.4466 503.00
86.5118 491.00
86.577 494.00
86.6422 490.00
86.7074 485.00
86.7726 472.00
86.8378 460.00
86.903 452.00
86.9682 441.00
87.0334 423.00
87.0986 437.00
87.1638 465.00
87.229 425.00
87.2942 442.00
87.3594 400.00
87.4246 415.00
87.4898 400.00
87.555 414.00
87.6202 407.00
87.6854 418.00
87.7506 408.00
87.8158 432.00
87.881 446.00
87.9462 428.00
88.0114 442.00
88.0766 405.00
88.1418 379.00
88.207 457.00
88.2722 426.00
88.3374 431.00
88.4026 443.00
88.4678 434.00
88.533 432.00
88.5982 462.00
88.6634 396.00
88.7286 423.00
88.7938 429.00
88.859 479.00
88.9242 412.00
88.9894 456.00
89.0546 455.00
89.1198 448.00
89.185 448.00
89.2502 477.00
89.3154 499.00
89.3806 591.00
89.4458 621.00
89.511 655.00
89.5762 745.00
89.6414 899.00
89.7066 1208.00
89.7718 2032.00
89.837 3546.00
89.9022 5979.00
89.9674 4505.00
90.0326 2202.00
90.0978 2104.00
90.163 3069.00
90.2282 2980.00
90.2934 1438.00
90.3586 856.00
90.4238 733.00
90.489 628.00
90.5542 566.00
90.6193 484.00
90.6845 501.00
90.7497 483.00
90.8149 474.00
90.8801 485.00
90.9453 453.00
91.0105 464.00
91.0757 446.00
91.1409 440.00
91.2061 495.00
91.2713 423.00
91.3365 432.00
91.4017 455.00
91.4669 473.00
91.5321 454.00
91.5973 429.00
91.6625 476.00
91.7277 439.00
91.7929 428.00
91.8581 414.00
91.9233 471.00
91.9885 436.00
92.0537 478.00
92.1189 453.00
92.1841 460.00
92.2493 456.00
92.3145 506.00
92.3797 465.00
92.4449 491.00
92.5101 520.00
92.5753 570.00
92.6405 627.00
92.7057 599.00
92.7709 622.00
92.8361 694.00
92.9013 849.00
92.9665 1159.00
93.0317 1918.00
93.0969 2239.00
93.1621 1404.00
93.2273 958.00
93.2925 1075.00
93.3577 1383.00
93.4229 1379.00
93.4881 866.00
93.5533 653.00
93.6185 578.00
93.6837 515.00
93.7489 524.00
93.8141 496.00
93.8793 514.00
93.9445 502.00
94.0097 473.00
94.0749 465.00
94.1401 451.00
94.2053 458.00
94.2705 508.00
94.3357 471.00
94.4009 525.00
94.4661 496.00
94.5313 512.00
94.5965 502.00
94.6617 437.00
94.7269 515.00
94.7921 547.00
94.8573 510.00
94.9225 532.00
94.9877 586.00
95.0529 605.00
95.1181 654.00
95.1833 676.00
95.2485 734.00
95.3137 938.00
95.3789 1328.00
95.444 2108.00
95.5092 3763.00
95.5744 5915.00
95.6396 5022.00
95.7048 2435.00
95.77 1943.00
95.8352 2626.00
95.9004 3436.00
95.9656 2330.00
96.0308 1273.00
96.096 819.00
96.1612 667.00
96.2264 664.00
96.2916 617.00
96.3568 551.00
96.422 509.00
96.4872 542.00
96.5524 557.00
96.6176 515.00
96.6828 491.00
96.748 501.00
96.8132 523.00
96.8784 475.00
96.9436 487.00
97.0088 491.00
97.074 452.00
97.1392 492.00
97.2044 478.00
97.2696 473.00
97.3348 467.00
97.4 533.00
97.4652 450.00
97.5304 463.00
97.5956 486.00
97.6608 463.00
97.726 460.00
97.7912 499.00
97.8564 439.00
97.9216 434.00
97.9868 476.00
98.052 506.00
98.1172 460.00
98.1824 484.00
98.2476 503.00
98.3128 526.00
98.378 550.00
98.4432 561.00
98.5084 609.00
98.5736 625.00
98.6388 789.00
98.704 1044.00
98.7692 1491.00
98.8344 2579.00
98.8996 3629.00
98.9648 2210.00
99.03 1336.00
99.0952 1274.00
99.1604 1640.00
99.2256 2067.00
99.2908 1499.00
99.356 897.00
99.4212 730.00
99.4864 629.00
99.5516 589.00
99.6168 555.00
99.682 537.00
99.7472 512.00
99.8124 506.00
99.8776 529.00
99.9428 517.00
100.008 548.00
100.073 534.00
100.095 500.00