File: data/xrd_creation/results/PG_2547-1.xy
9.903433 2473.00
9.968632 2611.00
10.0338 2615.00
10.099 2514.00
10.1642 2550.00
10.2294 2566.00
10.2946 2422.00
10.3598 2444.00
10.425 2437.00
10.4902 2431.00
10.5554 2443.00
10.6206 2281.00
10.6858 2413.00
10.751 2383.00
10.8162 2296.00
10.8814 2281.00
10.9466 2294.00
11.0118 2243.00
11.077 2220.00
11.1422 2167.00
11.2074 2176.00
11.2726 2079.00
11.3378 2156.00
11.403 2133.00
11.4682 2078.00
11.5334 2115.00
11.5986 2086.00
11.6638 2112.00
11.729 2066.00
11.7942 2069.00
11.8594 2009.00
11.9246 2076.00
11.9898 2006.00
12.055 2036.00
12.1202 2020.00
12.1854 1961.00
12.2506 1892.00
12.3158 1916.00
12.381 1887.00
12.4462 1974.00
12.5114 1943.00
12.5766 1785.00
12.6418 1788.00
12.707 1884.00
12.7722 1888.00
12.8374 1817.00
12.9026 1826.00
12.9678 1808.00
13.033 1842.00
13.0982 1777.00
13.1634 1779.00
13.2286 1777.00
13.2938 1804.00
13.359 1703.00
13.4242 1716.00
13.4894 1740.00
13.5546 1784.00
13.6198 1737.00
13.685 1764.00
13.7502 1781.00
13.8154 1715.00
13.8805 1720.00
13.9457 1634.00
14.0109 1664.00
14.0761 1650.00
14.1413 1662.00
14.2065 1688.00
14.2717 1742.00
14.3369 1594.00
14.4021 1647.00
14.4673 1610.00
14.5325 1610.00
14.5977 1656.00
14.6629 1614.00
14.7281 1576.00
14.7933 1596.00
14.8585 1639.00
14.9237 1557.00
14.9889 1530.00
15.0541 1619.00
15.1193 1548.00
15.1845 1611.00
15.2497 1571.00
15.3149 1498.00
15.3801 1473.00
15.4453 1589.00
15.5105 1525.00
15.5757 1516.00
15.6409 1507.00
15.7061 1544.00
15.7713 1549.00
15.8365 1492.00
15.9017 1523.00
15.9669 1508.00
16.0321 1515.00
16.0973 1588.00
16.1625 1539.00
16.2277 1477.00
16.2929 1496.00
16.3581 1442.00
16.4233 1381.00
16.4885 1450.00
16.5537 1409.00
16.6189 1439.00
16.6841 1499.00
16.7493 1424.00
16.8145 1474.00
16.8797 1493.00
16.9449 1429.00
17.0101 1392.00
17.0753 1539.00
17.1405 1483.00
17.2057 1548.00
17.2709 1662.00
17.3361 1726.00
17.4013 1811.00
17.4665 1902.00
17.5317 2159.00
17.5969 2417.00
17.6621 1906.00
17.7273 1557.00
17.7925 1499.00
17.8577 1403.00
17.9229 1362.00
17.9881 1411.00
18.0533 1346.00
18.1185 1338.00
18.1837 1345.00
18.2489 1279.00
18.3141 1315.00
18.3793 1326.00
18.4445 1329.00
18.5097 1311.00
18.5749 1366.00
18.6401 1351.00
18.7052 1402.00
18.7704 1432.00
18.8356 1539.00
18.9008 1653.00
18.966 1603.00
19.0312 1695.00
19.0964 1842.00
19.1616 1819.00
19.2268 1334.00
19.292 1196.00
19.3572 1296.00
19.4224 1216.00
19.4876 1267.00
19.5528 1157.00
19.618 1220.00
19.6832 1163.00
19.7484 1218.00
19.8136 1308.00
19.8788 1221.00
19.944 1227.00
20.0092 1243.00
20.0744 1248.00
20.1396 1135.00
20.2048 1191.00
20.27 1204.00
20.3352 1190.00
20.4004 1154.00
20.4656 1092.00
20.5308 1138.00
20.596 1165.00
20.6612 1191.00
20.7264 1252.00
20.7916 1238.00
20.8568 1312.00
20.922 1392.00
20.9872 1447.00
21.0524 1636.00
21.1176 1466.00
21.1828 1162.00
21.248 1148.00
21.3132 1182.00
21.3784 1270.00
21.4436 1338.00
21.5088 1394.00
21.574 1588.00
21.6392 1668.00
21.7044 1857.00
21.7696 2237.00
21.8348 2872.00
21.9 2114.00
21.9652 1264.00
22.0304 1104.00
22.0956 1130.00
22.1608 1193.00
22.226 1138.00
22.2912 1132.00
22.3564 1144.00
22.4216 1067.00
22.4868 1226.00
22.552 1069.00
22.6172 1181.00
22.6824 1232.00
22.7476 1383.00
22.8128 1493.00
22.878 1615.00
22.9432 1808.00
23.0084 2277.00
23.0736 2433.00
23.1388 1604.00
23.204 1063.00
23.2692 1076.00
23.3344 1037.00
23.3996 1056.00
23.4647 1067.00
23.5299 1016.00
23.5951 1047.00
23.6603 1015.00
23.7255 980.00
23.7907 1022.00
23.8559 1048.00
23.9211 1066.00
23.9863 1057.00
24.0515 1271.00
24.1167 1458.00
24.1819 1544.00
24.2471 1709.00
24.3123 2174.00
24.3775 1706.00
24.4427 1086.00
24.5079 1026.00
24.5731 939.00
24.6383 975.00
24.7035 1001.00
24.7687 1001.00
24.8339 979.00
24.8991 951.00
24.9643 950.00
25.0295 1004.00
25.0947 1038.00
25.1599 1008.00
25.2251 923.00
25.2903 968.00
25.3555 929.00
25.4207 917.00
25.4859 937.00
25.5511 933.00
25.6163 912.00
25.6815 910.00
25.7467 919.00
25.8119 889.00
25.8771 869.00
25.9423 945.00
26.0075 919.00
26.0727 928.00
26.1379 902.00
26.2031 866.00
26.2683 946.00
26.3335 842.00
26.3987 881.00
26.4639 889.00
26.5291 943.00
26.5943 879.00
26.6595 916.00
26.7247 979.00
26.7899 1047.00
26.8551 957.00
26.9203 981.00
26.9855 924.00
27.0507 1045.00
27.1159 1122.00
27.1811 1272.00
27.2463 1426.00
27.3115 1781.00
27.3767 1673.00
27.4419 1504.00
27.5071 1179.00
27.5723 1008.00
27.6375 951.00
27.7027 1081.00
27.7679 1132.00
27.8331 1322.00
27.8983 1698.00
27.9635 2210.00
28.0287 2946.00
28.0939 4184.00
28.1591 5916.00
28.2243 6580.00
28.2894 7605.00
28.3546 6238.00
28.4198 5634.00
28.485 5661.00
28.5502 3422.00
28.6154 1551.00
28.6806 1198.00
28.7458 1061.00
28.811 948.00
28.8762 1071.00
28.9414 1149.00
29.0066 1316.00
29.0718 1418.00
29.137 1761.00
29.2022 2450.00
29.2674 2655.00
29.3326 1820.00
29.3978 1124.00
29.463 1197.00
29.5282 1469.00
29.5934 1842.00
29.6586 2189.00
29.7238 3125.00
29.789 4858.00
29.8542 2845.00
29.9194 1522.00
29.9846 1149.00
30.0498 1005.00
30.115 928.00
30.1802 789.00
30.2454 834.00
30.3106 807.00
30.3758 786.00
30.441 755.00
30.5062 802.00
30.5714 715.00
30.6366 795.00
30.7018 770.00
30.767 788.00
30.8322 756.00
30.8974 739.00
30.9626 769.00
31.0278 754.00
31.093 772.00
31.1582 741.00
31.2234 788.00
31.2886 760.00
31.3538 810.00
31.419 802.00
31.4842 794.00
31.5494 854.00
31.6146 853.00
31.6798 746.00
31.745 725.00
31.8102 692.00
31.8754 742.00
31.9406 675.00
32.0058 785.00
32.071 707.00
32.1362 709.00
32.2014 721.00
32.2666 704.00
32.3318 760.00
32.397 697.00
32.4622 697.00
32.5274 689.00
32.5926 747.00
32.6578 683.00
32.723 684.00
32.7882 668.00
32.8534 709.00
32.9186 624.00
32.9838 744.00
33.0489 663.00
33.1141 627.00
33.1793 704.00
33.2445 669.00
33.3097 670.00
33.3749 653.00
33.4401 647.00
33.5053 740.00
33.5705 716.00
33.6357 754.00
33.7009 820.00
33.7661 751.00
33.8313 686.00
33.8965 655.00
33.9617 677.00
34.0269 679.00
34.0921 732.00
34.1573 647.00
34.2225 738.00
34.2877 841.00
34.3529 924.00
34.4181 1066.00
34.4833 1237.00
34.5485 1566.00
34.6137 1680.00
34.6789 1266.00
34.7441 975.00
34.8093 1110.00
34.8745 1365.00
34.9397 1054.00
35.0049 821.00
35.0701 681.00
35.1353 761.00
35.2005 856.00
35.2657 872.00
35.3309 978.00
35.3961 1106.00
35.4613 1466.00
35.5265 1287.00
35.5917 1538.00
35.6569 1363.00
35.7221 1229.00
35.7873 1039.00
35.8525 1137.00
35.9177 1403.00
35.9829 1198.00
36.0481 1239.00
36.1133 1485.00
36.1785 1595.00
36.2437 1245.00
36.3089 982.00
36.3741 791.00
36.4393 748.00
36.5045 833.00
36.5697 914.00
36.6349 838.00
36.7001 754.00
36.7653 706.00
36.8305 648.00
36.8957 661.00
36.9609 630.00
37.0261 667.00
37.0913 684.00
37.1565 737.00
37.2217 701.00
37.2869 673.00
37.3521 634.00
37.4173 658.00
37.4825 647.00
37.5477 740.00
37.6129 957.00
37.6781 874.00
37.7433 761.00
37.8085 771.00
37.8736 733.00
37.9388 688.00
38.004 775.00
38.0692 724.00
38.1344 671.00
38.1996 642.00
38.2648 606.00
38.33 664.00
38.3952 699.00
38.4604 780.00
38.5256 801.00
38.5908 1016.00
38.656 845.00
38.7212 830.00
38.7864 734.00
38.8516 916.00
38.9168 878.00
38.982 811.00
39.0472 618.00
39.1124 595.00
39.1776 577.00
39.2428 605.00
39.308 544.00
39.3732 570.00
39.4384 573.00
39.5036 541.00
39.5688 548.00
39.634 599.00
39.6992 583.00
39.7644 565.00
39.8296 560.00
39.8948 579.00
39.96 565.00
40.0252 537.00
40.0904 569.00
40.1556 542.00
40.2208 575.00
40.286 571.00
40.3512 570.00
40.4164 599.00
40.4816 532.00
40.5468 571.00
40.612 539.00
40.6772 608.00
40.7424 593.00
40.8076 650.00
40.8728 739.00
40.938 809.00
41.0032 703.00
41.0684 691.00
41.1336 647.00
41.1988 631.00
41.264 681.00
41.3292 783.00
41.3944 1071.00
41.4596 984.00
41.5248 1005.00
41.59 923.00
41.6552 1114.00
41.7204 1709.00
41.7856 1962.00
41.8508 1372.00
41.916 965.00
41.9812 626.00
42.0464 597.00
42.1116 568.00
42.1768 571.00
42.242 567.00
42.3072 631.00
42.3724 584.00
42.4376 640.00
42.5028 751.00
42.568 690.00
42.6332 613.00
42.6983 572.00
42.7635 500.00
42.8287 525.00
42.8939 621.00
42.9591 642.00
43.0243 721.00
43.0895 760.00
43.1547 943.00
43.2199 787.00
43.2851 898.00
43.3503 874.00
43.4155 1037.00
43.4807 1443.00
43.5459 1808.00
43.6111 1502.00
43.6763 1569.00
43.7415 1022.00
43.8067 1025.00
43.8719 780.00
43.9371 876.00
44.0023 704.00
44.0675 826.00
44.1327 799.00
44.1979 734.00
44.2631 647.00
44.3283 528.00
44.3935 510.00
44.4587 515.00
44.5239 515.00
44.5891 578.00
44.6543 562.00
44.7195 504.00
44.7847 525.00
44.8499 582.00
44.9151 575.00
44.9803 551.00
45.0455 553.00
45.1107 587.00
45.1759 620.00
45.2411 610.00
45.3063 689.00
45.3715 708.00
45.4367 973.00
45.5019 1214.00
45.5671 1321.00
45.6323 1035.00
45.6975 853.00
45.7627 583.00
45.8279 491.00
45.8931 557.00
45.9583 519.00
46.0235 520.00
46.0887 528.00
46.1539 516.00
46.2191 544.00
46.2843 539.00
46.3495 610.00
46.4147 620.00
46.4799 680.00
46.5451 829.00
46.6103 940.00
46.6755 1158.00
46.7407 1340.00
46.8059 1164.00
46.8711 1118.00
46.9363 1258.00
47.0015 1143.00
47.0667 903.00
47.1319 758.00
47.1971 587.00
47.2623 640.00
47.3275 707.00
47.3927 831.00
47.4579 1026.00
47.523 716.00
47.5882 744.00
47.6534 538.00
47.7186 544.00
47.7838 574.00
47.849 560.00
47.9142 568.00
47.9794 658.00
48.0446 794.00
48.1098 946.00
48.175 741.00
48.2402 658.00
48.3054 541.00
48.3706 509.00
48.4358 509.00
48.501 522.00
48.5662 481.00
48.6314 481.00
48.6966 489.00
48.7618 495.00
48.827 529.00
48.8922 530.00
48.9574 550.00
49.0226 589.00
49.0878 700.00
49.153 600.00
49.2182 614.00
49.2834 606.00
49.3486 530.00
49.4138 631.00
49.479 562.00
49.5442 540.00
49.6094 519.00
49.6746 471.00
49.7398 466.00
49.805 503.00
49.8702 507.00
49.9354 503.00
50.0006 491.00
50.0658 424.00
50.131 531.00
50.1962 467.00
50.2614 441.00
50.3266 454.00
50.3918 468.00
50.457 519.00
50.5222 511.00
50.5874 520.00
50.6526 564.00
50.7178 703.00
50.783 598.00
50.8482 600.00
50.9134 608.00
50.9786 557.00
51.0438 601.00
51.109 888.00
51.1742 1066.00
51.2394 805.00
51.3046 852.00
51.3698 671.00
51.435 643.00
51.5002 626.00
51.5654 709.00
51.6306 807.00
51.6958 874.00
51.761 680.00
51.8262 691.00
51.8914 618.00
51.9566 547.00
52.0218 567.00
52.087 678.00
52.1522 661.00
52.2174 599.00
52.2826 570.00
52.3477 545.00
52.4129 556.00
52.4781 582.00
52.5433 637.00
52.6085 724.00
52.6737 956.00
52.7389 946.00
52.8041 933.00
52.8693 865.00
52.9345 868.00
52.9997 835.00
53.0649 1058.00
53.1301 835.00
53.1953 919.00
53.2605 1019.00
53.3257 1004.00
53.3909 801.00
53.4561 739.00
53.5213 596.00
53.5865 527.00
53.6517 575.00
53.7169 566.00
53.7821 591.00
53.8473 557.00
53.9125 564.00
53.9777 565.00
54.0429 513.00
54.1081 550.00
54.1733 586.00
54.2385 731.00
54.3037 619.00
54.3689 676.00
54.4341 690.00
54.4993 662.00
54.5645 726.00
54.6297 747.00
54.6949 903.00
54.7601 1315.00
54.8253 1490.00
54.8905 943.00
54.9557 988.00
55.0209 607.00
55.0861 496.00
55.1513 491.00
55.2165 494.00
55.2817 584.00
55.3469 659.00
55.4121 778.00
55.4773 1101.00
55.5425 901.00
55.6077 855.00
55.6729 831.00
55.7381 629.00
55.8033 606.00
55.8685 595.00
55.9337 747.00
55.9989 963.00
56.0641 751.00
56.1293 816.00
56.1945 918.00
56.2597 1042.00
56.3249 864.00
56.3901 846.00
56.4553 637.00
56.5205 595.00
56.5857 463.00
56.6509 491.00
56.7161 512.00
56.7813 488.00
56.8465 434.00
56.9117 514.00
56.9769 542.00
57.042 541.00
57.1073 566.00
57.1724 580.00
57.2376 574.00
57.3028 646.00
57.368 792.00
57.4332 693.00
57.4984 632.00
57.5636 646.00
57.6288 531.00
57.694 575.00
57.7592 672.00
57.8244 742.00
57.8896 832.00
57.9548 1029.00
58.02 807.00
58.0852 904.00
58.1504 777.00
58.2156 751.00
58.2808 865.00
58.346 800.00
58.4112 822.00
58.4764 741.00
58.5416 647.00
58.6068 727.00
58.672 828.00
58.7372 661.00
58.8024 618.00
58.8676 678.00
58.9328 495.00
58.998 576.00
59.0632 495.00
59.1284 505.00
59.1936 473.00
59.2588 501.00
59.324 485.00
59.3892 469.00
59.4544 499.00
59.5196 448.00
59.5848 475.00
59.65 472.00
59.7152 511.00
59.7804 495.00
59.8456 551.00
59.9108 570.00
59.976 738.00
60.0412 922.00
60.1064 943.00
60.1716 1191.00
60.2368 1016.00
60.302 870.00
60.3672 936.00
60.4324 841.00
60.4976 726.00
60.5628 803.00
60.628 802.00
60.6932 1060.00
60.7584 788.00
60.8236 827.00
60.8888 779.00
60.954 644.00
61.0192 726.00
61.0844 772.00
61.1496 602.00
61.2148 646.00
61.28 636.00
61.3452 735.00
61.4104 668.00
61.4756 601.00
61.5408 624.00
61.606 547.00
61.6712 464.00
61.7364 516.00
61.8016 507.00
61.8667 514.00
61.932 508.00
61.9971 550.00
62.0623 574.00
62.1275 645.00
62.1927 659.00
62.2579 878.00
62.3231 765.00
62.3883 605.00
62.4535 660.00
62.5187 574.00
62.5839 527.00
62.6491 511.00
62.7143 589.00
62.7795 608.00
62.8447 724.00
62.9099 905.00
62.9751 935.00
63.0403 958.00
63.1055 1203.00
63.1707 1126.00
63.2359 875.00
63.3011 915.00
63.3663 792.00
63.4315 877.00
63.4967 786.00
63.5619 648.00
63.6271 663.00
63.6923 591.00
63.7575 479.00
63.8227 509.00
63.8879 451.00
63.9531 515.00
64.0183 488.00
64.0835 521.00
64.1487 623.00
64.2139 641.00
64.2791 590.00
64.3443 566.00
64.4095 530.00
64.4747 449.00
64.5399 494.00
64.6051 487.00
64.6703 527.00
64.7355 590.00
64.8007 691.00
64.8659 752.00
64.9311 616.00
64.9963 712.00
65.0615 933.00
65.1267 663.00
65.1919 661.00
65.2571 835.00
65.3223 891.00
65.3875 894.00
65.4527 903.00
65.5179 1234.00
65.5831 901.00
65.6483 951.00
65.7135 921.00
65.7787 667.00
65.8439 716.00
65.9091 612.00
65.9743 785.00
66.0395 768.00
66.1047 564.00
66.1699 610.00
66.2351 555.00
66.3003 459.00
66.3655 465.00
66.4307 467.00
66.4959 488.00
66.561 509.00
66.6263 554.00
66.6915 745.00
66.7566 593.00
66.8218 609.00
66.887 614.00
66.9522 505.00
67.0174 527.00
67.0826 523.00
67.1478 654.00
67.213 572.00
67.2782 526.00
67.3434 532.00
67.4086 479.00
67.4738 515.00
67.539 549.00
67.6042 623.00
67.6694 459.00
67.7346 476.00
67.7998 544.00
67.865 595.00
67.9302 672.00
67.9954 578.00
68.0606 608.00
68.1258 588.00
68.191 588.00
68.2562 653.00
68.3214 606.00
68.3866 921.00
68.4518 697.00
68.517 651.00
68.5822 746.00
68.6474 651.00
68.7126 633.00
68.7778 504.00
68.843 476.00
68.9082 460.00
68.9734 446.00
69.0386 449.00
69.1038 419.00
69.169 470.00
69.2342 450.00
69.2994 463.00
69.3646 426.00
69.4298 473.00
69.495 453.00
69.5602 410.00
69.6254 475.00
69.6906 456.00
69.7558 407.00
69.821 456.00
69.8862 478.00
69.9514 456.00
70.0166 468.00
70.0818 499.00
70.147 475.00
70.2122 509.00
70.2774 500.00
70.3426 507.00
70.4078 503.00
70.473 564.00
70.5382 525.00
70.6034 556.00
70.6686 674.00
70.7338 664.00
70.799 528.00
70.8642 506.00
70.9294 529.00
70.9946 464.00
71.0598 546.00
71.125 657.00
71.1902 596.00
71.2554 509.00
71.3205 579.00
71.3858 584.00
71.451 517.00
71.5162 536.00
71.5813 526.00
71.6465 604.00
71.7117 486.00
71.7769 529.00
71.8421 517.00
71.9073 472.00
71.9725 474.00
72.0377 536.00
72.1029 647.00
72.1681 578.00
72.2333 494.00
72.2985 560.00
72.3637 572.00
72.4289 539.00
72.4941 536.00
72.5593 615.00
72.6245 572.00
72.6897 632.00
72.7549 822.00
72.8201 800.00
72.8853 737.00
72.9505 696.00
73.0157 631.00
73.0809 590.00
73.1461 534.00
73.2113 472.00
73.2765 516.00
73.3417 541.00
73.4069 521.00
73.4721 561.00
73.5373 531.00
73.6025 516.00
73.6677 506.00
73.7329 456.00
73.7981 465.00
73.8633 490.00
73.9285 515.00
73.9937 476.00
74.0589 485.00
74.1241 447.00
74.1893 530.00
74.2545 477.00
74.3197 473.00
74.3849 476.00
74.4501 498.00
74.5153 508.00
74.5805 492.00
74.6457 543.00
74.7109 593.00
74.7761 506.00
74.8413 471.00
74.9065 494.00
74.9717 499.00
75.0369 460.00
75.1021 463.00
75.1673 479.00
75.2325 523.00
75.2977 670.00
75.3629 780.00
75.4281 579.00
75.4933 618.00
75.5585 757.00
75.6237 688.00
75.6889 589.00
75.7541 559.00
75.8193 534.00
75.8845 560.00
75.9497 532.00
76.0149 488.00
76.0801 468.00
76.1452 423.00
76.2104 455.00
76.2756 441.00
76.3409 473.00
76.406 419.00
76.4712 424.00
76.5364 443.00
76.6016 439.00
76.6668 448.00
76.732 433.00
76.7972 431.00
76.8624 454.00
76.9276 458.00
76.9928 469.00
77.058 529.00
77.1232 575.00
77.1884 532.00
77.2536 553.00
77.3188 486.00
77.384 520.00
77.4492 591.00
77.5144 630.00
77.5796 525.00
77.6448 507.00
77.71 563.00
77.7752 546.00
77.8404 493.00
77.9056 491.00
77.9708 513.00
78.036 445.00
78.1012 484.00
78.1664 457.00
78.2316 454.00
78.2968 496.00
78.362 454.00
78.4272 463.00
78.4924 458.00
78.5576 496.00
78.6228 575.00
78.688 649.00
78.7532 544.00
78.8184 504.00
78.8836 612.00
78.9488 595.00
79.014 530.00
79.0792 497.00
79.1444 481.00
79.2096 466.00
79.2748 414.00
79.34 412.00
79.4052 391.00
79.4704 372.00
79.5356 406.00
79.6008 427.00
79.666 446.00
79.7312 473.00
79.7964 420.00
79.8616 420.00
79.9268 387.00
79.992 419.00
80.0572 438.00
80.1224 432.00
80.1876 446.00
80.2528 539.00
80.318 489.00
80.3832 459.00
80.4484 445.00
80.5136 500.00
80.5788 515.00
80.644 596.00
80.7092 523.00
80.7744 494.00
80.8396 524.00
80.9048 502.00
80.9699 444.00
81.0351 467.00
81.1003 436.00
81.1655 436.00
81.2307 442.00
81.2959 434.00
81.3611 446.00
81.4263 409.00
81.4915 391.00
81.5567 448.00
81.6219 448.00
81.6871 418.00
81.7523 420.00
81.8175 413.00
81.8827 406.00
81.9479 489.00
82.0131 500.00
82.0783 515.00
82.1435 599.00
82.2087 488.00
82.2739 456.00
82.3391 495.00
82.4043 462.00
82.4695 487.00
82.5347 404.00
82.5999 394.00
82.6651 435.00
82.7303 412.00
82.7955 442.00
82.8607 487.00
82.9259 551.00
82.9911 668.00
83.0563 581.00
83.1215 518.00
83.1867 531.00
83.2519 536.00
83.3171 462.00
83.3823 434.00
83.4475 398.00
83.5127 425.00
83.5779 442.00
83.6431 444.00
83.7083 439.00
83.7735 481.00
83.8387 508.00
83.9039 505.00
83.9691 481.00
84.0343 486.00
84.0995 538.00
84.1647 547.00
84.2299 550.00
84.2951 569.00
84.3603 506.00
84.4255 481.00
84.4907 505.00
84.5559 530.00
84.6211 441.00
84.6863 431.00
84.7515 476.00
84.8167 491.00
84.8819 473.00
84.9471 386.00
85.0123 450.00
85.0775 419.00
85.1427 400.00
85.2079 438.00
85.2731 466.00
85.3383 449.00
85.4035 461.00
85.4687 458.00
85.5339 458.00
85.5991 477.00
85.6643 457.00
85.7295 444.00
85.7946 424.00
85.8598 446.00
85.925 428.00
85.9903 467.00
86.0554 420.00
86.1206 491.00
86.1858 440.00
86.251 486.00
86.3162 439.00
86.3814 439.00
86.4466 464.00
86.5118 470.00
86.577 438.00
86.6422 376.00
86.7074 430.00
86.7726 454.00
86.8378 410.00
86.903 385.00
86.9682 388.00
87.0334 426.00
87.0986 459.00
87.1638 400.00
87.229 448.00
87.2942 441.00
87.3594 449.00
87.4246 466.00
87.4898 450.00
87.555 457.00
87.6202 525.00
87.6854 448.00
87.7506 527.00
87.8158 601.00
87.881 490.00
87.9462 452.00
88.0114 469.00
88.0766 530.00
88.1418 506.00
88.207 439.00
88.2722 459.00
88.3374 408.00
88.4026 439.00
88.4678 418.00
88.533 418.00
88.5982 435.00
88.6634 445.00
88.7286 448.00
88.7938 472.00
88.859 547.00
88.9242 557.00
88.9894 530.00
89.0546 507.00
89.1198 491.00
89.185 552.00
89.2502 514.00
89.3154 507.00
89.3806 457.00
89.4458 470.00
89.511 460.00
89.5762 446.00
89.6414 435.00
89.7066 476.00
89.7718 448.00
89.837 404.00
89.9022 433.00
89.9674 380.00
90.0326 405.00
90.0978 393.00
90.163 408.00
90.2282 451.00
90.2934 443.00
90.3586 425.00
90.4238 484.00
90.489 463.00
90.5542 432.00
90.6193 430.00
90.6845 461.00
90.7497 420.00
90.8149 428.00
90.8801 490.00
90.9453 477.00
91.0105 450.00
91.0757 462.00
91.1409 457.00
91.2061 554.00
91.2713 527.00
91.3365 442.00
91.4017 460.00
91.4669 478.00
91.5321 524.00
91.5973 475.00
91.6625 447.00
91.7277 455.00
91.7929 421.00
91.8581 422.00
91.9233 454.00
91.9885 509.00
92.0537 468.00
92.1189 434.00
92.1841 405.00
92.2493 433.00
92.3145 442.00
92.3797 456.00
92.4449 444.00
92.5101 422.00
92.5753 427.00
92.6405 459.00
92.7057 447.00
92.7709 482.00
92.8361 479.00
92.9013 461.00
92.9665 498.00
93.0317 515.00
93.0969 461.00
93.1621 494.00
93.2273 532.00
93.2925 528.00
93.3577 521.00
93.4229 543.00
93.4881 517.00
93.5533 572.00
93.6185 460.00
93.6837 463.00
93.7489 470.00
93.8141 479.00
93.8793 525.00
93.9445 502.00
94.0097 465.00
94.0749 454.00
94.1401 503.00
94.2053 504.00
94.2705 491.00
94.3357 519.00
94.4009 522.00
94.4661 515.00
94.5313 455.00
94.5965 478.00
94.6617 511.00
94.7269 521.00
94.7921 522.00
94.8573 504.00
94.9225 488.00
94.9877 486.00
95.0529 515.00
95.1181 545.00
95.1833 559.00
95.2485 525.00
95.3137 485.00
95.3789 480.00
95.444 511.00
95.5092 543.00
95.5744 594.00
95.6396 641.00
95.7048 577.00
95.77 535.00
95.8352 561.00
95.9004 522.00
95.9656 581.00
96.0308 518.00
96.096 454.00
96.1612 455.00
96.2264 415.00
96.2916 472.00
96.3568 511.00
96.422 489.00
96.4872 513.00
96.5524 484.00
96.6176 501.00
96.6828 455.00
96.748 528.00
96.8132 539.00
96.8784 509.00
96.9436 551.00
97.0088 480.00
97.074 468.00
97.1392 487.00
97.2044 515.00
97.2696 498.00
97.3348 449.00
97.4 442.00
97.4652 430.00
97.5304 490.00
97.5956 440.00
97.6608 434.00
97.726 437.00
97.7912 481.00
97.8564 411.00
97.9216 438.00
97.9868 445.00
98.052 452.00
98.1172 477.00
98.1824 475.00
98.2476 418.00
98.3128 471.00
98.378 469.00
98.4432 462.00
98.5084 474.00
98.5736 487.00
98.6388 499.00
98.704 449.00
98.7692 496.00
98.8344 475.00
98.8996 468.00
98.9648 494.00
99.03 476.00
99.0952 476.00
99.1604 435.00
99.2256 459.00
99.2908 478.00
99.356 411.00
99.4212 425.00
99.4864 459.00
99.5516 466.00
99.6168 440.00
99.682 424.00
99.7472 429.00
99.8124 404.00
99.8776 475.00
99.9428 417.00
100.008 405.00
100.073 463.00
100.095 415.00