File: data/xrd_creation/results/PG_2046-1.xy
9.903433 2588.00
9.968632 2644.00
10.0338 2553.00
10.099 2598.00
10.1642 2453.00
10.2294 2593.00
10.2946 2552.00
10.3598 2474.00
10.425 2501.00
10.4902 2512.00
10.5554 2600.00
10.6206 2388.00
10.6858 2427.00
10.751 2437.00
10.8162 2427.00
10.8814 2375.00
10.9466 2347.00
11.0118 2356.00
11.077 2397.00
11.1422 2351.00
11.2074 2250.00
11.2726 2277.00
11.3378 2215.00
11.403 2361.00
11.4682 2231.00
11.5334 2318.00
11.5986 2211.00
11.6638 2113.00
11.729 2144.00
11.7942 2239.00
11.8594 2088.00
11.9246 2179.00
11.9898 2007.00
12.055 2112.00
12.1202 2055.00
12.1854 2126.00
12.2506 2097.00
12.3158 2023.00
12.381 1948.00
12.4462 1986.00
12.5114 1980.00
12.5766 1965.00
12.6418 1900.00
12.707 1943.00
12.7722 2002.00
12.8374 1916.00
12.9026 1982.00
12.9678 1871.00
13.033 1964.00
13.0982 1987.00
13.1634 1849.00
13.2286 1866.00
13.2938 1874.00
13.359 1821.00
13.4242 1790.00
13.4894 1818.00
13.5546 1878.00
13.6198 1721.00
13.685 1794.00
13.7502 1760.00
13.8154 1888.00
13.8805 1726.00
13.9457 1769.00
14.0109 1806.00
14.0761 1739.00
14.1413 1775.00
14.2065 1791.00
14.2717 1699.00
14.3369 1722.00
14.4021 1698.00
14.4673 1785.00
14.5325 1703.00
14.5977 1627.00
14.6629 1606.00
14.7281 1609.00
14.7933 1668.00
14.8585 1637.00
14.9237 1591.00
14.9889 1653.00
15.0541 1601.00
15.1193 1587.00
15.1845 1556.00
15.2497 1605.00
15.3149 1543.00
15.3801 1600.00
15.4453 1631.00
15.5105 1516.00
15.5757 1538.00
15.6409 1533.00
15.7061 1600.00
15.7713 1538.00
15.8365 1506.00
15.9017 1473.00
15.9669 1497.00
16.0321 1500.00
16.0973 1475.00
16.1625 1539.00
16.2277 1477.00
16.2929 1559.00
16.3581 1443.00
16.4233 1542.00
16.4885 1402.00
16.5537 1420.00
16.6189 1384.00
16.6841 1499.00
16.7493 1406.00
16.8145 1408.00
16.8797 1413.00
16.9449 1419.00
17.0101 1560.00
17.0753 1407.00
17.1405 1451.00
17.2057 1495.00
17.2709 1424.00
17.3361 1447.00
17.4013 1475.00
17.4665 1619.00
17.5317 1877.00
17.5969 2386.00
17.6621 3130.00
17.7273 3769.00
17.7925 2368.00
17.8577 1494.00
17.9229 1405.00
17.9881 1378.00
18.0533 1421.00
18.1185 1214.00
18.1837 1316.00
18.2489 1358.00
18.3141 1266.00
18.3793 1227.00
18.4445 1239.00
18.5097 1312.00
18.5749 1301.00
18.6401 1295.00
18.7052 1248.00
18.7704 1225.00
18.8356 1219.00
18.9008 1257.00
18.966 1164.00
19.0312 1274.00
19.0964 1205.00
19.1616 1220.00
19.2268 1174.00
19.292 1252.00
19.3572 1227.00
19.4224 1219.00
19.4876 1185.00
19.5528 1143.00
19.618 1152.00
19.6832 1157.00
19.7484 1145.00
19.8136 1200.00
19.8788 1200.00
19.944 1146.00
20.0092 1168.00
20.0744 1124.00
20.1396 1179.00
20.2048 1136.00
20.27 1132.00
20.3352 1127.00
20.4004 1113.00
20.4656 1082.00
20.5308 1132.00
20.596 1131.00
20.6612 1083.00
20.7264 1074.00
20.7916 1095.00
20.8568 1076.00
20.922 1031.00
20.9872 1101.00
21.0524 1022.00
21.1176 1115.00
21.1828 984.00
21.248 1053.00
21.3132 1031.00
21.3784 1116.00
21.4436 1049.00
21.5088 1082.00
21.574 1060.00
21.6392 1073.00
21.7044 1049.00
21.7696 1008.00
21.8348 1004.00
21.9 1022.00
21.9652 983.00
22.0304 1059.00
22.0956 1045.00
22.1608 1010.00
22.226 1066.00
22.2912 976.00
22.3564 999.00
22.4216 1035.00
22.4868 989.00
22.552 1009.00
22.6172 933.00
22.6824 979.00
22.7476 918.00
22.8128 958.00
22.878 964.00
22.9432 982.00
23.0084 964.00
23.0736 976.00
23.1388 917.00
23.204 1012.00
23.2692 943.00
23.3344 1050.00
23.3996 985.00
23.4647 1045.00
23.5299 1010.00
23.5951 1089.00
23.6603 1105.00
23.7255 1110.00
23.7907 1172.00
23.8559 1317.00
23.9211 1694.00
23.9863 2764.00
24.0515 5826.00
24.1167 11868.00
24.1819 19105.00
24.2471 9861.00
24.3123 2325.00
24.3775 1277.00
24.4427 1257.00
24.5079 1161.00
24.5731 1124.00
24.6383 938.00
24.7035 1055.00
24.7687 1036.00
24.8339 1111.00
24.8991 1096.00
24.9643 1072.00
25.0295 1121.00
25.0947 1131.00
25.1599 1260.00
25.2251 1317.00
25.2903 1538.00
25.3555 1935.00
25.4207 3113.00
25.4859 6183.00
25.5511 11985.00
25.6163 18488.00
25.6815 12656.00
25.7467 4604.00
25.8119 1885.00
25.8771 1506.00
25.9423 1255.00
26.0075 1188.00
26.0727 1008.00
26.1379 954.00
26.2031 943.00
26.2683 893.00
26.3335 952.00
26.3987 914.00
26.4639 894.00
26.5291 881.00
26.5943 867.00
26.6595 821.00
26.7247 888.00
26.7899 901.00
26.8551 877.00
26.9203 827.00
26.9855 836.00
27.0507 776.00
27.1159 789.00
27.1811 826.00
27.2463 785.00
27.3115 824.00
27.3767 769.00
27.4419 797.00
27.5071 802.00
27.5723 767.00
27.6375 847.00
27.7027 880.00
27.7679 902.00
27.8331 861.00
27.8983 719.00
27.9635 812.00
28.0287 813.00
28.0939 753.00
28.1591 743.00
28.2243 753.00
28.2894 742.00
28.3546 767.00
28.4198 703.00
28.485 683.00
28.5502 709.00
28.6154 771.00
28.6806 728.00
28.7458 709.00
28.811 678.00
28.8762 642.00
28.9414 702.00
29.0066 695.00
29.0718 671.00
29.137 660.00
29.2022 720.00
29.2674 653.00
29.3326 743.00
29.3978 678.00
29.463 690.00
29.5282 694.00
29.5934 710.00
29.6586 672.00
29.7238 692.00
29.789 798.00
29.8542 1007.00
29.9194 1704.00
29.9846 2717.00
30.0498 1962.00
30.115 1172.00
30.1802 812.00
30.2454 713.00
30.3106 799.00
30.3758 757.00
30.441 821.00
30.5062 874.00
30.5714 830.00
30.6366 879.00
30.7018 834.00
30.767 1023.00
30.8322 1600.00
30.8974 3466.00
30.9626 8607.00
31.0278 15957.00
31.093 9359.00
31.1582 3226.00
31.2234 1097.00
31.2886 930.00
31.3538 864.00
31.419 759.00
31.4842 700.00
31.5494 713.00
31.6146 698.00
31.6798 637.00
31.745 677.00
31.8102 639.00
31.8754 646.00
31.9406 624.00
32.0058 619.00
32.071 644.00
32.1362 597.00
32.2014 666.00
32.2666 670.00
32.3318 619.00
32.397 573.00
32.4622 561.00
32.5274 577.00
32.5926 638.00
32.6578 603.00
32.723 584.00
32.7882 595.00
32.8534 542.00
32.9186 539.00
32.9838 560.00
33.0489 541.00
33.1141 601.00
33.1793 554.00
33.2445 556.00
33.3097 570.00
33.3749 603.00
33.4401 503.00
33.5053 591.00
33.5705 595.00
33.6357 568.00
33.7009 577.00
33.7661 550.00
33.8313 618.00
33.8965 612.00
33.9617 580.00
34.0269 617.00
34.0921 727.00
34.1573 1043.00
34.2225 2070.00
34.2877 4413.00
34.3529 3109.00
34.4181 1998.00
34.4833 699.00
34.5485 655.00
34.6137 594.00
34.6789 532.00
34.7441 522.00
34.8093 549.00
34.8745 530.00
34.9397 550.00
35.0049 475.00
35.0701 516.00
35.1353 512.00
35.2005 571.00
35.2657 550.00
35.3309 577.00
35.3961 693.00
35.4613 1175.00
35.5265 1787.00
35.5917 1166.00
35.6569 836.00
35.7221 547.00
35.7873 524.00
35.8525 523.00
35.9177 489.00
35.9829 489.00
36.0481 479.00
36.1133 520.00
36.1785 507.00
36.2437 446.00
36.3089 514.00
36.3741 527.00
36.4393 523.00
36.5045 502.00
36.5697 462.00
36.6349 473.00
36.7001 432.00
36.7653 466.00
36.8305 503.00
36.8957 526.00
36.9609 483.00
37.0261 540.00
37.0913 635.00
37.1565 892.00
37.2217 1331.00
37.2869 1380.00
37.3521 989.00
37.4173 678.00
37.4825 549.00
37.5477 544.00
37.6129 573.00
37.6781 537.00
37.7433 571.00
37.8085 587.00
37.8736 774.00
37.9388 1027.00
38.004 1943.00
38.0692 3562.00
38.1344 3415.00
38.1996 2340.00
38.2648 1189.00
38.33 823.00
38.3952 957.00
38.4604 1216.00
38.5256 960.00
38.5908 913.00
38.656 1385.00
38.7212 2869.00
38.7864 2287.00
38.8516 2516.00
38.9168 1462.00
38.982 1086.00
39.0472 639.00
39.1124 536.00
39.1776 511.00
39.2428 465.00
39.308 481.00
39.3732 446.00
39.4384 433.00
39.5036 424.00
39.5688 459.00
39.634 459.00
39.6992 436.00
39.7644 452.00
39.8296 421.00
39.8948 457.00
39.96 393.00
40.0252 414.00
40.0904 421.00
40.1556 418.00
40.2208 418.00
40.286 451.00
40.3512 386.00
40.4164 396.00
40.4816 425.00
40.5468 434.00
40.612 414.00
40.6772 432.00
40.7424 435.00
40.8076 543.00
40.8728 942.00
40.938 1189.00
41.0032 838.00
41.0684 606.00
41.1336 406.00
41.1988 404.00
41.264 415.00
41.3292 381.00
41.3944 421.00
41.4596 400.00
41.5248 402.00
41.59 417.00
41.6552 368.00
41.7204 368.00
41.7856 460.00
41.8508 379.00
41.916 398.00
41.9812 372.00
42.0464 407.00
42.1116 432.00
42.1768 354.00
42.242 401.00
42.3072 358.00
42.3724 391.00
42.4376 394.00
42.5028 369.00
42.568 371.00
42.6332 407.00
42.6983 410.00
42.7635 361.00
42.8287 345.00
42.8939 358.00
42.9591 400.00
43.0243 367.00
43.0895 389.00
43.1547 347.00
43.2199 410.00
43.2851 386.00
43.3503 374.00
43.4155 384.00
43.4807 327.00
43.5459 364.00
43.6111 391.00
43.6763 340.00
43.7415 374.00
43.8067 387.00
43.8719 340.00
43.9371 392.00
44.0023 390.00
44.0675 336.00
44.1327 361.00
44.1979 382.00
44.2631 388.00
44.3283 360.00
44.3935 378.00
44.4587 361.00
44.5239 391.00
44.5891 376.00
44.6543 377.00
44.7195 363.00
44.7847 323.00
44.8499 333.00
44.9151 348.00
44.9803 355.00
45.0455 356.00
45.1107 353.00
45.1759 414.00
45.2411 385.00
45.3063 327.00
45.3715 354.00
45.4367 390.00
45.5019 416.00
45.5671 396.00
45.6323 412.00
45.6975 358.00
45.7627 418.00
45.8279 428.00
45.8931 543.00
45.9583 1087.00
46.0235 2357.00
46.0887 1454.00
46.1539 1394.00
46.2191 629.00
46.2843 495.00
46.3495 532.00
46.4147 520.00
46.4799 526.00
46.5451 669.00
46.6103 1102.00
46.6755 2935.00
46.7407 8055.00
46.8059 4878.00
46.8711 4643.00
46.9363 1652.00
47.0015 720.00
47.0667 570.00
47.1319 535.00
47.1971 456.00
47.2623 421.00
47.3275 363.00
47.3927 419.00
47.4579 398.00
47.523 401.00
47.5882 364.00
47.6534 423.00
47.7186 419.00
47.7838 449.00
47.849 574.00
47.9142 930.00
47.9794 925.00
48.0446 822.00
48.1098 835.00
48.175 1033.00
48.2402 2238.00
48.3054 4851.00
48.3706 4126.00
48.4358 3093.00
48.501 1942.00
48.5662 836.00
48.6314 640.00
48.6966 465.00
48.7618 416.00
48.827 442.00
48.8922 393.00
48.9574 366.00
49.0226 385.00
49.0878 550.00
49.153 561.00
49.2182 456.00
49.2834 418.00
49.3486 383.00
49.4138 319.00
49.479 363.00
49.5442 345.00
49.6094 337.00
49.6746 324.00
49.7398 344.00
49.805 351.00
49.8702 333.00
49.9354 329.00
50.0006 316.00
50.0658 303.00
50.131 300.00
50.1962 348.00
50.2614 350.00
50.3266 317.00
50.3918 287.00
50.457 339.00
50.5222 273.00
50.5874 323.00
50.6526 328.00
50.7178 284.00
50.783 326.00
50.8482 318.00
50.9134 293.00
50.9786 310.00
51.0438 306.00
51.109 320.00
51.1742 299.00
51.2394 317.00
51.3046 273.00
51.3698 332.00
51.435 331.00
51.5002 313.00
51.5654 313.00
51.6306 326.00
51.6958 332.00
51.761 301.00
51.8262 279.00
51.8914 341.00
51.9566 315.00
52.0218 329.00
52.087 302.00
52.1522 293.00
52.2174 340.00
52.2826 292.00
52.3477 304.00
52.4129 380.00
52.4781 475.00
52.5433 514.00
52.6085 384.00
52.6737 463.00
52.7389 309.00
52.8041 330.00
52.8693 319.00
52.9345 309.00
52.9997 296.00
53.0649 311.00
53.1301 324.00
53.1953 296.00
53.2605 313.00
53.3257 311.00
53.3909 339.00
53.4561 308.00
53.5213 305.00
53.5865 334.00
53.6517 333.00
53.7169 379.00
53.7821 362.00
53.8473 377.00
53.9125 483.00
53.9777 570.00
54.0429 1006.00
54.1081 2053.00
54.1733 3308.00
54.2385 2228.00
54.3037 2069.00
54.3689 1245.00
54.4341 638.00
54.4993 488.00
54.5645 508.00
54.6297 428.00
54.6949 408.00
54.7601 378.00
54.8253 358.00
54.8905 367.00
54.9557 384.00
55.0209 466.00
55.0861 482.00
55.1513 590.00
55.2165 1107.00
55.2817 2816.00
55.3469 4893.00
55.4121 2481.00
55.4773 2709.00
55.5425 1399.00
55.6077 627.00
55.6729 482.00
55.7381 353.00
55.8033 327.00
55.8685 336.00
55.9337 326.00
55.9989 344.00
56.0641 298.00
56.1293 335.00
56.1945 335.00
56.2597 295.00
56.3249 312.00
56.3901 292.00
56.4553 267.00
56.5205 287.00
56.5857 273.00
56.6509 278.00
56.7161 282.00
56.7813 284.00
56.8465 325.00
56.9117 298.00
56.9769 303.00
57.042 299.00
57.1073 313.00
57.1724 243.00
57.2376 292.00
57.3028 265.00
57.368 257.00
57.4332 268.00
57.4984 289.00
57.5636 277.00
57.6288 267.00
57.694 270.00
57.7592 277.00
57.8244 273.00
57.8896 278.00
57.9548 283.00
58.02 268.00
58.0852 284.00
58.1504 264.00
58.2156 280.00
58.2808 276.00
58.346 314.00
58.4112 334.00
58.4764 328.00
58.5416 469.00
58.6068 1015.00
58.672 1493.00
58.7372 648.00
58.8024 907.00
58.8676 637.00
58.9328 446.00
58.998 751.00
59.0632 1680.00
59.1284 1091.00
59.1936 854.00
59.2588 1046.00
59.324 436.00
59.3892 318.00
59.4544 282.00
59.5196 295.00
59.5848 290.00
59.65 272.00
59.7152 272.00
59.7804 261.00
59.8456 302.00
59.9108 264.00
59.976 335.00
60.0412 499.00
60.1064 677.00
60.1716 359.00
60.2368 428.00
60.302 334.00
60.3672 258.00
60.4324 260.00
60.4976 263.00
60.5628 244.00
60.628 285.00
60.6932 279.00
60.7584 268.00
60.8236 263.00
60.8888 281.00
60.954 261.00
61.0192 282.00
61.0844 294.00
61.1496 232.00
61.2148 245.00
61.28 240.00
61.3452 290.00
61.4104 270.00
61.4756 259.00
61.5408 225.00
61.606 307.00
61.6712 271.00
61.7364 250.00
61.8016 276.00
61.8667 370.00
61.932 336.00
61.9971 331.00
62.0623 307.00
62.1275 330.00
62.1927 274.00
62.2579 381.00
62.3231 543.00
62.3883 746.00
62.4535 512.00
62.5187 558.00
62.5839 542.00
62.6491 428.00
62.7143 425.00
62.7795 526.00
62.8447 857.00
62.9099 1917.00
62.9751 2168.00
63.0403 1266.00
63.1055 1406.00
63.1707 1058.00
63.2359 523.00
63.3011 353.00
63.3663 333.00
63.4315 297.00
63.4967 280.00
63.5619 301.00
63.6271 257.00
63.6923 241.00
63.7575 297.00
63.8227 402.00
63.8879 454.00
63.9531 324.00
64.0183 443.00
64.0835 536.00
64.1487 596.00
64.2139 1331.00
64.2791 1076.00
64.3443 551.00
64.4095 886.00
64.4747 457.00
64.5399 266.00
64.6051 227.00
64.6703 265.00
64.7355 269.00
64.8007 235.00
64.8659 225.00
64.9311 247.00
64.9963 256.00
65.0615 216.00
65.1267 226.00
65.1919 237.00
65.2571 245.00
65.3223 217.00
65.3875 271.00
65.4527 228.00
65.5179 261.00
65.5831 286.00
65.6483 250.00
65.7135 225.00
65.7787 312.00
65.8439 223.00
65.9091 232.00
65.9743 247.00
66.0395 208.00
66.1047 247.00
66.1699 240.00
66.2351 232.00
66.3003 240.00
66.3655 259.00
66.4307 264.00
66.4959 250.00
66.561 224.00
66.6263 219.00
66.6915 265.00
66.7566 243.00
66.8218 259.00
66.887 306.00
66.9522 338.00
67.0174 258.00
67.0826 263.00
67.1478 278.00
67.213 203.00
67.2782 267.00
67.3434 251.00
67.4086 241.00
67.4738 256.00
67.539 238.00
67.6042 208.00
67.6694 249.00
67.7346 237.00
67.7998 256.00
67.865 216.00
67.9302 231.00
67.9954 239.00
68.0606 236.00
68.1258 260.00
68.191 208.00
68.2562 239.00
68.3214 224.00
68.3866 267.00
68.4518 238.00
68.517 246.00
68.5822 290.00
68.6474 294.00
68.7126 275.00
68.7778 345.00
68.843 355.00
68.9082 504.00
68.9734 924.00
69.0386 1054.00
69.1038 653.00
69.169 657.00
69.2342 641.00
69.2994 427.00
69.3646 355.00
69.4298 323.00
69.495 301.00
69.5602 323.00
69.6254 335.00
69.6906 312.00
69.7558 318.00
69.821 395.00
69.8862 860.00
69.9514 1819.00
70.0166 720.00
70.0818 632.00
70.147 1010.00
70.2122 539.00
70.2774 360.00
70.3426 406.00
70.4078 450.00
70.473 814.00
70.5382 1226.00
70.6034 788.00
70.6686 667.00
70.7338 781.00
70.799 572.00
70.8642 356.00
70.9294 261.00
70.9946 250.00
71.0598 275.00
71.125 237.00
71.1902 236.00
71.2554 225.00
71.3205 211.00
71.3858 236.00
71.451 233.00
71.5162 213.00
71.5813 235.00
71.6465 289.00
71.7117 346.00
71.7769 665.00
71.8421 601.00
71.9073 326.00
71.9725 404.00
72.0377 439.00
72.1029 278.00
72.1681 232.00
72.2333 220.00
72.2985 236.00
72.3637 244.00
72.4289 216.00
72.4941 236.00
72.5593 241.00
72.6245 215.00
72.6897 208.00
72.7549 226.00
72.8201 223.00
72.8853 217.00
72.9505 224.00
73.0157 198.00
73.0809 206.00
73.1461 196.00
73.2113 213.00
73.2765 261.00
73.3417 229.00
73.4069 236.00
73.4721 230.00
73.5373 187.00
73.6025 237.00
73.6677 214.00
73.7329 284.00
73.7981 264.00
73.8633 234.00
73.9285 220.00
73.9937 276.00
74.0589 258.00
74.1241 244.00
74.1893 258.00
74.2545 330.00
74.3197 436.00
74.3849 327.00
74.4501 342.00
74.5153 383.00
74.5805 447.00
74.6457 814.00
74.7109 1518.00
74.7761 656.00
74.8413 459.00
74.9065 824.00
74.9717 621.00
75.0369 405.00
75.1021 399.00
75.1673 620.00
75.2325 1090.00
75.2977 1702.00
75.3629 1009.00
75.4281 788.00
75.4933 965.00
75.5585 781.00
75.6237 447.00
75.6889 292.00
75.7541 311.00
75.8193 259.00
75.8845 276.00
75.9497 325.00
76.0149 302.00
76.0801 265.00
76.1452 283.00
76.2104 478.00
76.2756 674.00
76.3409 482.00
76.406 423.00
76.4712 416.00
76.5364 361.00
76.6016 291.00
76.6668 263.00
76.732 258.00
76.7972 256.00
76.8624 406.00
76.9276 387.00
76.9928 261.00
77.058 258.00
77.1232 312.00
77.1884 224.00
77.2536 206.00
77.3188 211.00
77.384 172.00
77.4492 223.00
77.5144 223.00
77.5796 221.00
77.6448 209.00
77.71 203.00
77.7752 216.00
77.8404 206.00
77.9056 191.00
77.9708 199.00
78.036 190.00
78.1012 197.00
78.1664 197.00
78.2316 189.00
78.2968 209.00
78.362 206.00
78.4272 214.00
78.4924 225.00
78.5576 215.00
78.6228 212.00
78.688 229.00
78.7532 217.00
78.8184 256.00
78.8836 221.00
78.9488 212.00
79.014 257.00
79.0792 229.00
79.1444 234.00
79.2096 234.00
79.2748 211.00
79.34 240.00
79.4052 246.00
79.4704 289.00
79.5356 328.00
79.6008 402.00
79.666 710.00
79.7312 1319.00
79.7964 565.00
79.8616 437.00
79.9268 655.00
79.992 794.00
80.0572 935.00
80.1224 922.00
80.1876 421.00
80.2528 458.00
80.318 664.00
80.3832 496.00
80.4484 304.00
80.5136 257.00
80.5788 245.00
80.644 211.00
80.7092 227.00
80.7744 217.00
80.8396 241.00
80.9048 257.00
80.9699 286.00
81.0351 274.00
81.1003 229.00
81.1655 248.00
81.2307 277.00
81.2959 229.00
81.3611 241.00
81.4263 199.00
81.4915 187.00
81.5567 195.00
81.6219 222.00
81.6871 227.00
81.7523 280.00
81.8175 590.00
81.8827 793.00
81.9479 321.00
82.0131 307.00
82.0783 431.00
82.1435 473.00
82.2087 280.00
82.2739 263.00
82.3391 318.00
82.4043 354.00
82.4695 321.00
82.5347 391.00
82.5999 357.00
82.6651 322.00
82.7303 421.00
82.7955 509.00
82.8607 776.00
82.9259 931.00
82.9911 605.00
83.0563 442.00
83.1215 560.00
83.1867 543.00
83.2519 366.00
83.3171 406.00
83.3823 491.00
83.4475 392.00
83.5127 341.00
83.5779 297.00
83.6431 374.00
83.7083 313.00
83.7735 316.00
83.8387 262.00
83.9039 244.00
83.9691 257.00
84.0343 224.00
84.0995 238.00
84.1647 178.00
84.2299 225.00
84.2951 211.00
84.3603 171.00
84.4255 180.00
84.4907 194.00
84.5559 178.00
84.6211 219.00
84.6863 197.00
84.7515 186.00
84.8167 202.00
84.8819 192.00
84.9471 187.00
85.0123 188.00
85.0775 211.00
85.1427 196.00
85.2079 199.00
85.2731 200.00
85.3383 212.00
85.4035 213.00
85.4687 196.00
85.5339 206.00
85.5991 281.00
85.6643 501.00
85.7295 433.00
85.7946 243.00
85.8598 227.00
85.925 307.00
85.9903 331.00
86.0554 229.00
86.1206 199.00
86.1858 200.00
86.251 197.00
86.3162 204.00
86.3814 189.00
86.4466 184.00
86.5118 171.00
86.577 209.00
86.6422 180.00
86.7074 178.00
86.7726 161.00
86.8378 197.00
86.903 175.00
86.9682 176.00
87.0334 192.00
87.0986 244.00
87.1638 208.00
87.229 194.00
87.2942 187.00
87.3594 214.00
87.4246 193.00
87.4898 205.00
87.555 187.00
87.6202 175.00
87.6854 175.00
87.7506 192.00
87.8158 197.00
87.881 154.00
87.9462 179.00
88.0114 199.00
88.0766 172.00
88.1418 177.00
88.207 173.00
88.2722 192.00
88.3374 202.00
88.4026 177.00
88.4678 177.00
88.533 194.00
88.5982 173.00
88.6634 173.00
88.7286 180.00
88.7938 193.00
88.859 193.00
88.9242 178.00
88.9894 193.00
89.0546 182.00
89.1198 183.00
89.185 183.00
89.2502 188.00
89.3154 226.00
89.3806 261.00
89.4458 224.00
89.511 211.00
89.5762 208.00
89.6414 200.00
89.7066 213.00
89.7718 183.00
89.837 191.00
89.9022 189.00
89.9674 154.00
90.0326 184.00
90.0978 200.00
90.163 161.00
90.2282 176.00
90.2934 181.00
90.3586 180.00
90.4238 163.00
90.489 199.00
90.5542 155.00
90.6193 169.00
90.6845 188.00
90.7497 221.00
90.8149 214.00
90.8801 199.00
90.9453 152.00
91.0105 180.00
91.0757 174.00
91.1409 203.00
91.2061 181.00
91.2713 206.00
91.3365 164.00
91.4017 185.00
91.4669 202.00
91.5321 181.00
91.5973 175.00
91.6625 209.00
91.7277 223.00
91.7929 168.00
91.8581 185.00
91.9233 186.00
91.9885 196.00
92.0537 167.00
92.1189 175.00
92.1841 181.00
92.2493 164.00
92.3145 166.00
92.3797 185.00
92.4449 182.00
92.5101 174.00
92.5753 185.00
92.6405 162.00
92.7057 178.00
92.7709 190.00
92.8361 185.00
92.9013 180.00
92.9665 173.00
93.0317 194.00
93.0969 186.00
93.1621 195.00
93.2273 205.00
93.2925 177.00
93.3577 237.00
93.4229 256.00
93.4881 259.00
93.5533 236.00
93.6185 190.00
93.6837 200.00
93.7489 244.00
93.8141 230.00
93.8793 226.00
93.9445 215.00
94.0097 215.00
94.0749 207.00
94.1401 227.00
94.2053 235.00
94.2705 310.00
94.3357 419.00
94.4009 599.00
94.4661 593.00
94.5313 339.00
94.5965 333.00
94.6617 368.00
94.7269 404.00
94.7921 361.00
94.8573 272.00
94.9225 238.00
94.9877 232.00
95.0529 177.00
95.1181 227.00
95.1833 238.00
95.2485 340.00
95.3137 479.00
95.3789 678.00
95.444 823.00
95.5092 669.00
95.5744 414.00
95.6396 446.00
95.7048 530.00
95.77 529.00
95.8352 402.00
95.9004 300.00
95.9656 227.00
96.0308 213.00
96.096 161.00
96.1612 204.00
96.2264 211.00
96.2916 217.00
96.3568 208.00
96.422 257.00
96.4872 268.00
96.5524 453.00
96.6176 329.00
96.6828 266.00
96.748 209.00
96.8132 260.00
96.8784 398.00
96.9436 328.00
97.0088 237.00
97.074 201.00
97.1392 210.00
97.2044 260.00
97.2696 193.00
97.3348 207.00
97.4 171.00
97.4652 205.00
97.5304 214.00
97.5956 161.00
97.6608 202.00
97.726 187.00
97.7912 199.00
97.8564 198.00
97.9216 187.00
97.9868 198.00
98.052 193.00
98.1172 185.00
98.1824 201.00
98.2476 223.00
98.3128 236.00
98.378 261.00
98.4432 331.00
98.5084 412.00
98.5736 371.00
98.6388 320.00
98.704 291.00
98.7692 264.00
98.8344 308.00
98.8996 339.00
98.9648 262.00
99.03 239.00
99.0952 231.00
99.1604 235.00
99.2256 275.00
99.2908 313.00
99.356 411.00
99.4212 360.00
99.4864 278.00
99.5516 266.00
99.6168 384.00
99.682 673.00
99.7472 885.00
99.8124 430.00
99.8776 382.00
99.9428 388.00
100.008 519.00
100.073 654.00
100.095 558.00