File: data/xrd_creation/results/PG_2540-1.xy
9.903433 2591.00
9.968632 2551.00
10.0338 2382.00
10.099 2416.00
10.1642 2484.00
10.2294 2301.00
10.2946 2412.00
10.3598 2433.00
10.425 2350.00
10.4902 2281.00
10.5554 2236.00
10.6206 2277.00
10.6858 2161.00
10.751 2271.00
10.8162 2207.00
10.8814 2223.00
10.9466 2189.00
11.0118 2093.00
11.077 2180.00
11.1422 2148.00
11.2074 2074.00
11.2726 2104.00
11.3378 2053.00
11.403 2017.00
11.4682 2119.00
11.5334 2016.00
11.5986 2083.00
11.6638 2020.00
11.729 1855.00
11.7942 1990.00
11.8594 1983.00
11.9246 1980.00
11.9898 1922.00
12.055 1952.00
12.1202 1897.00
12.1854 1967.00
12.2506 1956.00
12.3158 1937.00
12.381 1830.00
12.4462 1828.00
12.5114 1830.00
12.5766 1794.00
12.6418 1791.00
12.707 1866.00
12.7722 1869.00
12.8374 1765.00
12.9026 1740.00
12.9678 1740.00
13.033 1714.00
13.0982 1828.00
13.1634 1721.00
13.2286 1776.00
13.2938 1692.00
13.359 1719.00
13.4242 1701.00
13.4894 1693.00
13.5546 1606.00
13.6198 1696.00
13.685 1590.00
13.7502 1622.00
13.8154 1654.00
13.8805 1651.00
13.9457 1664.00
14.0109 1713.00
14.0761 1717.00
14.1413 1905.00
14.2065 1884.00
14.2717 2189.00
14.3369 2475.00
14.4021 3098.00
14.4673 4285.00
14.5325 5243.00
14.5977 2837.00
14.6629 1736.00
14.7281 1661.00
14.7933 1695.00
14.8585 1582.00
14.9237 1544.00
14.9889 1559.00
15.0541 1503.00
15.1193 1550.00
15.1845 1537.00
15.2497 1587.00
15.3149 1701.00
15.3801 1698.00
15.4453 1566.00
15.5105 1486.00
15.5757 1529.00
15.6409 1495.00
15.7061 1477.00
15.7713 1604.00
15.8365 1522.00
15.9017 1393.00
15.9669 1463.00
16.0321 1480.00
16.0973 1468.00
16.1625 1416.00
16.2277 1503.00
16.2929 1506.00
16.3581 1477.00
16.4233 1428.00
16.4885 1440.00
16.5537 1469.00
16.6189 1470.00
16.6841 1454.00
16.7493 1464.00
16.8145 1416.00
16.8797 1427.00
16.9449 1425.00
17.0101 1471.00
17.0753 1407.00
17.1405 1439.00
17.2057 1421.00
17.2709 1441.00
17.3361 1386.00
17.4013 1438.00
17.4665 1422.00
17.5317 1416.00
17.5969 1376.00
17.6621 1482.00
17.7273 1324.00
17.7925 1311.00
17.8577 1400.00
17.9229 1376.00
17.9881 1376.00
18.0533 1229.00
18.1185 1378.00
18.1837 1379.00
18.2489 1342.00
18.3141 1306.00
18.3793 1309.00
18.4445 1334.00
18.5097 1286.00
18.5749 1346.00
18.6401 1379.00
18.7052 1294.00
18.7704 1244.00
18.8356 1254.00
18.9008 1284.00
18.966 1275.00
19.0312 1246.00
19.0964 1286.00
19.1616 1285.00
19.2268 1270.00
19.292 1261.00
19.3572 1270.00
19.4224 1228.00
19.4876 1246.00
19.5528 1197.00
19.618 1312.00
19.6832 1237.00
19.7484 1197.00
19.8136 1213.00
19.8788 1259.00
19.944 1285.00
20.0092 1226.00
20.0744 1196.00
20.1396 1256.00
20.2048 1334.00
20.27 1326.00
20.3352 1429.00
20.4004 1454.00
20.4656 1519.00
20.5308 1402.00
20.596 1233.00
20.6612 1304.00
20.7264 1252.00
20.7916 1273.00
20.8568 1213.00
20.922 1184.00
20.9872 1137.00
21.0524 1191.00
21.1176 1181.00
21.1828 1217.00
21.248 1137.00
21.3132 1185.00
21.3784 1131.00
21.4436 1161.00
21.5088 1148.00
21.574 1196.00
21.6392 1200.00
21.7044 1105.00
21.7696 1160.00
21.8348 1159.00
21.9 1155.00
21.9652 1145.00
22.0304 1125.00
22.0956 1136.00
22.1608 1122.00
22.226 1163.00
22.2912 1163.00
22.3564 1177.00
22.4216 1188.00
22.4868 1166.00
22.552 1177.00
22.6172 1216.00
22.6824 1228.00
22.7476 1213.00
22.8128 1332.00
22.878 1288.00
22.9432 1185.00
23.0084 1159.00
23.0736 1071.00
23.1388 1088.00
23.204 1067.00
23.2692 1126.00
23.3344 1121.00
23.3996 1093.00
23.4647 1058.00
23.5299 1118.00
23.5951 1068.00
23.6603 1007.00
23.7255 1069.00
23.7907 1024.00
23.8559 1068.00
23.9211 1147.00
23.9863 1138.00
24.0515 1152.00
24.1167 1146.00
24.1819 1127.00
24.2471 1130.00
24.3123 1124.00
24.3775 1154.00
24.4427 1256.00
24.5079 1360.00
24.5731 1558.00
24.6383 1564.00
24.7035 1405.00
24.7687 1248.00
24.8339 1095.00
24.8991 1092.00
24.9643 1099.00
25.0295 1132.00
25.0947 1109.00
25.1599 1045.00
25.2251 1000.00
25.2903 984.00
25.3555 1023.00
25.4207 1064.00
25.4859 1004.00
25.5511 1052.00
25.6163 1099.00
25.6815 1073.00
25.7467 1206.00
25.8119 1236.00
25.8771 1307.00
25.9423 1241.00
26.0075 1390.00
26.0727 1487.00
26.1379 1667.00
26.2031 1846.00
26.2683 2188.00
26.3335 2893.00
26.3987 4446.00
26.4639 7618.00
26.5291 14298.00
26.5943 25394.00
26.6595 34863.00
26.7247 25550.00
26.7899 12100.00
26.8551 6127.00
26.9203 3752.00
26.9855 2839.00
27.0507 2119.00
27.1159 1857.00
27.1811 1630.00
27.2463 1633.00
27.3115 1771.00
27.3767 2332.00
27.4419 3415.00
27.5071 2667.00
27.5723 1536.00
27.6375 1275.00
27.7027 1215.00
27.7679 1197.00
27.8331 1133.00
27.8983 1114.00
27.9635 1134.00
28.0287 1157.00
28.0939 1077.00
28.1591 1155.00
28.2243 1116.00
28.2894 1169.00
28.3546 1110.00
28.4198 1163.00
28.485 1145.00
28.5502 1164.00
28.6154 1270.00
28.6806 1368.00
28.7458 1703.00
28.811 2705.00
28.8762 5545.00
28.9414 8336.00
29.0066 5009.00
29.0718 2118.00
29.137 1403.00
29.2022 1425.00
29.2674 1393.00
29.3326 1618.00
29.3978 1852.00
29.463 1611.00
29.5282 1280.00
29.5934 1115.00
29.6586 1068.00
29.7238 997.00
29.789 1012.00
29.8542 1086.00
29.9194 979.00
29.9846 1073.00
30.0498 1047.00
30.115 1047.00
30.1802 1157.00
30.2454 1085.00
30.3106 1075.00
30.3758 1096.00
30.441 1149.00
30.5062 1351.00
30.5714 1687.00
30.6366 2394.00
30.7018 1972.00
30.767 1661.00
30.8322 1832.00
30.8974 3129.00
30.9626 6496.00
31.0278 14450.00
31.093 16654.00
31.1582 9452.00
31.2234 2906.00
31.2886 1741.00
31.3538 1504.00
31.419 1402.00
31.4842 1307.00
31.5494 1299.00
31.6146 1263.00
31.6798 1406.00
31.745 1407.00
31.8102 1571.00
31.8754 1714.00
31.9406 2060.00
32.0058 2423.00
32.071 2955.00
32.1362 3973.00
32.2014 5477.00
32.2666 7901.00
32.3318 11391.00
32.397 13441.00
32.4622 10751.00
32.5274 7039.00
32.5926 4448.00
32.6578 3341.00
32.723 2478.00
32.7882 2010.00
32.8534 1786.00
32.9186 1570.00
32.9838 1463.00
33.0489 1246.00
33.1141 1201.00
33.1793 1162.00
33.2445 1080.00
33.3097 1045.00
33.3749 1057.00
33.4401 1107.00
33.5053 1028.00
33.5705 1022.00
33.6357 1040.00
33.7009 1047.00
33.7661 1151.00
33.8313 1137.00
33.8965 1249.00
33.9617 1380.00
34.0269 1567.00
34.0921 2049.00
34.1573 3078.00
34.2225 5270.00
34.2877 8747.00
34.3529 10215.00
34.4181 7023.00
34.4833 3702.00
34.5485 2125.00
34.6137 1556.00
34.6789 1228.00
34.7441 1091.00
34.8093 1018.00
34.8745 973.00
34.9397 892.00
35.0049 925.00
35.0701 927.00
35.1353 982.00
35.2005 873.00
35.2657 898.00
35.3309 919.00
35.3961 852.00
35.4613 852.00
35.5265 798.00
35.5917 838.00
35.6569 842.00
35.7221 801.00
35.7873 869.00
35.8525 876.00
35.9177 826.00
35.9829 888.00
36.0481 828.00
36.1133 867.00
36.1785 810.00
36.2437 842.00
36.3089 799.00
36.3741 760.00
36.4393 770.00
36.5045 823.00
36.5697 799.00
36.6349 827.00
36.7001 792.00
36.7653 822.00
36.8305 867.00
36.8957 1013.00
36.9609 1268.00
37.0261 1412.00
37.0913 1381.00
37.1565 1254.00
37.2217 1339.00
37.2869 1120.00
37.3521 1012.00
37.4173 777.00
37.4825 798.00
37.5477 782.00
37.6129 781.00
37.6781 758.00
37.7433 775.00
37.8085 719.00
37.8736 763.00
37.9388 748.00
38.004 769.00
38.0692 788.00
38.1344 836.00
38.1996 769.00
38.2648 807.00
38.33 672.00
38.3952 754.00
38.4604 708.00
38.5256 713.00
38.5908 785.00
38.656 733.00
38.7212 716.00
38.7864 698.00
38.8516 718.00
38.9168 718.00
38.982 769.00
39.0472 681.00
39.1124 782.00
39.1776 741.00
39.2428 725.00
39.308 728.00
39.3732 863.00
39.4384 977.00
39.5036 1359.00
39.5688 1929.00
39.634 1909.00
39.6992 1613.00
39.7644 1152.00
39.8296 1032.00
39.8948 963.00
39.96 1083.00
40.0252 1215.00
40.0904 2144.00
40.1556 3438.00
40.2208 2207.00
40.286 1706.00
40.3512 996.00
40.4164 801.00
40.4816 824.00
40.5468 742.00
40.612 735.00
40.6772 696.00
40.7424 752.00
40.8076 740.00
40.8728 736.00
40.938 764.00
41.0032 760.00
41.0684 830.00
41.1336 914.00
41.1988 944.00
41.264 993.00
41.3292 925.00
41.3944 799.00
41.4596 756.00
41.5248 786.00
41.59 708.00
41.6552 765.00
41.7204 749.00
41.7856 705.00
41.8508 690.00
41.916 745.00
41.9812 709.00
42.0464 687.00
42.1116 756.00
42.1768 751.00
42.242 727.00
42.3072 677.00
42.3724 709.00
42.4376 690.00
42.5028 744.00
42.568 733.00
42.6332 751.00
42.6983 791.00
42.7635 803.00
42.8287 853.00
42.8939 880.00
42.9591 966.00
43.0243 1012.00
43.0895 1691.00
43.1547 3482.00
43.2199 5165.00
43.2851 3438.00
43.3503 2623.00
43.4155 1259.00
43.4807 928.00
43.5459 897.00
43.6111 948.00
43.6763 921.00
43.7415 962.00
43.8067 1344.00
43.8719 1155.00
43.9371 1127.00
44.0023 915.00
44.0675 862.00
44.1327 823.00
44.1979 961.00
44.2631 914.00
44.3283 967.00
44.3935 1053.00
44.4587 1161.00
44.5239 1331.00
44.5891 1522.00
44.6543 1745.00
44.7195 2316.00
44.7847 2882.00
44.8499 2995.00
44.9151 2583.00
44.9803 2145.00
45.0455 1693.00
45.1107 1347.00
45.1759 1149.00
45.2411 1022.00
45.3063 1025.00
45.3715 916.00
45.4367 909.00
45.5019 930.00
45.5671 943.00
45.6323 831.00
45.6975 852.00
45.7627 921.00
45.8279 869.00
45.8931 1011.00
45.9583 1085.00
46.0235 1228.00
46.0887 1477.00
46.1539 1979.00
46.2191 2715.00
46.2843 3420.00
46.3495 3357.00
46.4147 2934.00
46.4799 2549.00
46.5451 2347.00
46.6103 1815.00
46.6755 1567.00
46.7407 1222.00
46.8059 1017.00
46.8711 915.00
46.9363 892.00
47.0015 864.00
47.0667 831.00
47.1319 827.00
47.1971 864.00
47.2623 853.00
47.3275 881.00
47.3927 926.00
47.4579 1041.00
47.523 1115.00
47.5882 1556.00
47.6534 2620.00
47.7186 5829.00
47.7838 8027.00
47.849 5287.00
47.9142 4482.00
47.9794 2034.00
48.0446 1297.00
48.1098 1041.00
48.175 937.00
48.2402 880.00
48.3054 882.00
48.3706 885.00
48.4358 902.00
48.501 872.00
48.5662 924.00
48.6314 855.00
48.6966 766.00
48.7618 821.00
48.827 818.00
48.8922 809.00
48.9574 833.00
49.0226 811.00
49.0878 735.00
49.153 789.00
49.2182 871.00
49.2834 861.00
49.3486 839.00
49.4138 1015.00
49.479 1023.00
49.5442 1131.00
49.6094 1140.00
49.6746 1363.00
49.7398 1552.00
49.805 1776.00
49.8702 2234.00
49.9354 2899.00
50.0006 4113.00
50.0658 5288.00
50.131 5095.00
50.1962 4315.00
50.2614 3491.00
50.3266 2636.00
50.3918 2038.00
50.457 1729.00
50.5222 1432.00
50.5874 1320.00
50.6526 1165.00
50.7178 1088.00
50.783 1047.00
50.8482 929.00
50.9134 983.00
50.9786 919.00
51.0438 918.00
51.109 996.00
51.1742 982.00
51.2394 945.00
51.3046 994.00
51.3698 926.00
51.435 852.00
51.5002 822.00
51.5654 822.00
51.6306 810.00
51.6958 802.00
51.761 821.00
51.8262 895.00
51.8914 947.00
51.9566 1034.00
52.0218 1207.00
52.087 1320.00
52.1522 1687.00
52.2174 2929.00
52.2826 7747.00
52.3477 12550.00
52.4129 6381.00
52.4781 7461.00
52.5433 2907.00
52.6085 1662.00
52.6737 1271.00
52.7389 1076.00
52.8041 983.00
52.8693 946.00
52.9345 951.00
52.9997 969.00
53.0649 1011.00
53.1301 1046.00
53.1953 1050.00
53.2605 1103.00
53.3257 1206.00
53.3909 1223.00
53.4561 1123.00
53.5213 1041.00
53.5865 932.00
53.6517 879.00
53.7169 859.00
53.7821 844.00
53.8473 850.00
53.9125 854.00
53.9777 939.00
54.0429 998.00
54.1081 1082.00
54.1733 1057.00
54.2385 993.00
54.3037 905.00
54.3689 934.00
54.4341 1003.00
54.4993 1043.00
54.5645 1063.00
54.6297 934.00
54.6949 929.00
54.7601 905.00
54.8253 788.00
54.8905 779.00
54.9557 721.00
55.0209 789.00
55.0861 803.00
55.1513 772.00
55.2165 791.00
55.2817 805.00
55.3469 747.00
55.4121 720.00
55.4773 681.00
55.5425 708.00
55.6077 755.00
55.6729 689.00
55.7381 671.00
55.8033 705.00
55.8685 730.00
55.9337 812.00
55.9989 829.00
56.0641 821.00
56.1293 1159.00
56.1945 2188.00
56.2597 3870.00
56.3249 1901.00
56.3901 2386.00
56.4553 1503.00
56.5205 978.00
56.5857 1041.00
56.6509 1137.00
56.7161 996.00
56.7813 993.00
56.8465 888.00
56.9117 751.00
56.9769 784.00
57.042 795.00
57.1073 739.00
57.1724 673.00
57.2376 715.00
57.3028 789.00
57.368 740.00
57.4332 782.00
57.4984 814.00
57.5636 785.00
57.6288 849.00
57.694 861.00
57.7592 891.00
57.8244 963.00
57.8896 1046.00
57.9548 1213.00
58.02 1381.00
58.0852 1592.00
58.1504 1969.00
58.2156 2370.00
58.2808 3047.00
58.346 3039.00
58.4112 2612.00
58.4764 2347.00
58.5416 1898.00
58.6068 1476.00
58.672 1272.00
58.7372 1175.00
58.8024 1035.00
58.8676 902.00
58.9328 884.00
58.998 861.00
59.0632 828.00
59.1284 835.00
59.1936 883.00
59.2588 859.00
59.324 843.00
59.3892 986.00
59.4544 1562.00
59.5196 3068.00
59.5848 1863.00
59.65 1862.00
59.7152 1885.00
59.7804 1145.00
59.8456 979.00
59.9108 943.00
59.976 947.00
60.0412 889.00
60.1064 853.00
60.1716 947.00
60.2368 957.00
60.302 981.00
60.3672 1092.00
60.4324 1236.00
60.4976 1354.00
60.5628 1602.00
60.628 1837.00
60.6932 2299.00
60.7584 2532.00
60.8236 2242.00
60.8888 2023.00
60.954 1796.00
61.0192 1453.00
61.0844 1263.00
61.1496 1110.00
61.2148 1022.00
61.28 1024.00
61.3452 1016.00
61.4104 1035.00
61.4756 1211.00
61.5408 1261.00
61.606 1125.00
61.6712 1051.00
61.7364 984.00
61.8016 831.00
61.8667 804.00
61.932 747.00
61.9971 678.00
62.0623 761.00
62.1275 759.00
62.1927 777.00
62.2579 844.00
62.3231 761.00
62.3883 846.00
62.4535 1061.00
62.5187 1907.00
62.5839 2875.00
62.6491 1775.00
62.7143 1803.00
62.7795 1636.00
62.8447 1061.00
62.9099 945.00
62.9751 882.00
63.0403 904.00
63.1055 979.00
63.1707 1049.00
63.2359 1110.00
63.3011 1301.00
63.3663 1412.00
63.4315 1524.00
63.4967 1487.00
63.5619 1462.00
63.6271 1392.00
63.6923 1336.00
63.7575 1196.00
63.8227 1077.00
63.8879 958.00
63.9531 940.00
64.0183 882.00
64.0835 898.00
64.1487 831.00
64.2139 943.00
64.2791 1306.00
64.3443 1698.00
64.4095 1048.00
64.4747 1171.00
64.5399 1155.00
64.6051 798.00
64.6703 786.00
64.7355 671.00
64.8007 698.00
64.8659 622.00
64.9311 687.00
64.9963 636.00
65.0615 641.00
65.1267 683.00
65.1919 693.00
65.2571 701.00
65.3223 647.00
65.3875 648.00
65.4527 685.00
65.5179 683.00
65.5831 665.00
65.6483 691.00
65.7135 802.00
65.7787 813.00
65.8439 877.00
65.9091 968.00
65.9743 1110.00
66.0395 1248.00
66.1047 1627.00
66.1699 2423.00
66.2351 3738.00
66.3003 3421.00
66.3655 2692.00
66.4307 2724.00
66.4959 1983.00
66.561 1318.00
66.6263 1025.00
66.6915 904.00
66.7566 863.00
66.8218 765.00
66.887 754.00
66.9522 690.00
67.0174 660.00
67.0826 627.00
67.1478 595.00
67.213 649.00
67.2782 665.00
67.3434 693.00
67.4086 717.00
67.4738 684.00
67.539 597.00
67.6042 591.00
67.6694 594.00
67.7346 586.00
67.7998 608.00
67.865 605.00
67.9302 628.00
67.9954 614.00
68.0606 658.00
68.1258 620.00
68.191 651.00
68.2562 683.00
68.3214 704.00
68.3866 864.00
68.4518 957.00
68.517 1059.00
68.5822 949.00
68.6474 892.00
68.7126 839.00
68.7778 782.00
68.843 730.00
68.9082 708.00
68.9734 729.00
69.0386 716.00
69.1038 785.00
69.169 721.00
69.2342 650.00
69.2994 753.00
69.3646 648.00
69.4298 672.00
69.495 673.00
69.5602 656.00
69.6254 685.00
69.6906 728.00
69.7558 770.00
69.821 860.00
69.8862 1007.00
69.9514 1518.00
70.0166 1580.00
70.0818 1309.00
70.147 1193.00
70.2122 1236.00
70.2774 929.00
70.3426 880.00
70.4078 753.00
70.473 667.00
70.5382 675.00
70.6034 701.00
70.6686 695.00
70.7338 668.00
70.799 615.00
70.8642 647.00
70.9294 608.00
70.9946 628.00
71.0598 634.00
71.125 647.00
71.1902 693.00
71.2554 640.00
71.3205 679.00
71.3858 692.00
71.451 744.00
71.5162 685.00
71.5813 715.00
71.6465 702.00
71.7117 754.00
71.7769 773.00
71.8421 839.00
71.9073 839.00
71.9725 924.00
72.0377 1003.00
72.1029 1220.00
72.1681 1475.00
72.2333 1588.00
72.2985 1524.00
72.3637 1452.00
72.4289 1351.00
72.4941 1102.00
72.5593 1063.00
72.6245 884.00
72.6897 790.00
72.7549 782.00
72.8201 706.00
72.8853 678.00
72.9505 689.00
73.0157 680.00
73.0809 631.00
73.1461 686.00
73.2113 668.00
73.2765 690.00
73.3417 744.00
73.4069 676.00
73.4721 696.00
73.5373 738.00
73.6025 742.00
73.6677 847.00
73.7329 857.00
73.7981 843.00
73.8633 932.00
73.9285 1059.00
73.9937 1147.00
74.0589 1114.00
74.1241 1042.00
74.1893 1114.00
74.2545 985.00
74.3197 956.00
74.3849 907.00
74.4501 800.00
74.5153 791.00
74.5805 670.00
74.6457 705.00
74.7109 689.00
74.7761 658.00
74.8413 766.00
74.9065 908.00
74.9717 974.00
75.0369 821.00
75.1021 814.00
75.1673 878.00
75.2325 799.00
75.2977 853.00
75.3629 957.00
75.4281 1187.00
75.4933 1609.00
75.5585 1603.00
75.6237 1292.00
75.6889 1232.00
75.7541 1261.00
75.8193 1021.00
75.8845 931.00
75.9497 829.00
76.0149 730.00
76.0801 693.00
76.1452 706.00
76.2104 726.00
76.2756 717.00
76.3409 743.00
76.406 786.00
76.4712 867.00
76.5364 1288.00
76.6016 2110.00
76.6668 1758.00
76.732 1253.00
76.7972 1406.00
76.8624 1445.00
76.9276 985.00
76.9928 816.00
77.058 675.00
77.1232 648.00
77.1884 596.00
77.2536 641.00
77.3188 600.00
77.384 561.00
77.4492 624.00
77.5144 596.00
77.5796 554.00
77.6448 595.00
77.71 608.00
77.7752 598.00
77.8404 567.00
77.9056 586.00
77.9708 595.00
78.036 605.00
78.1012 594.00
78.1664 590.00
78.2316 598.00
78.2968 609.00
78.362 642.00
78.4272 619.00
78.4924 638.00
78.5576 622.00
78.6228 667.00
78.688 704.00
78.7532 739.00
78.8184 967.00
78.8836 1164.00
78.9488 884.00
79.014 791.00
79.0792 863.00
79.1444 871.00
79.2096 784.00
79.2748 740.00
79.34 740.00
79.4052 775.00
79.4704 774.00
79.5356 699.00
79.6008 721.00
79.666 753.00
79.7312 679.00
79.7964 729.00
79.8616 739.00
79.9268 787.00
79.992 816.00
80.0572 730.00
80.1224 715.00
80.1876 721.00
80.2528 661.00
80.318 686.00
80.3832 653.00
80.4484 726.00
80.5136 713.00
80.5788 701.00
80.644 680.00
80.7092 819.00
80.7744 793.00
80.8396 858.00
80.9048 870.00
80.9699 809.00
81.0351 827.00
81.1003 809.00
81.1655 770.00
81.2307 679.00
81.2959 729.00
81.3611 711.00
81.4263 696.00
81.4915 649.00
81.5567 643.00
81.6219 651.00
81.6871 644.00
81.7523 673.00
81.8175 657.00
81.8827 669.00
81.9479 663.00
82.0131 687.00
82.0783 645.00
82.1435 729.00
82.2087 678.00
82.2739 713.00
82.3391 793.00
82.4043 716.00
82.4695 814.00
82.5347 835.00
82.5999 865.00
82.6651 908.00
82.7303 960.00
82.7955 1023.00
82.8607 1245.00
82.9259 1474.00
82.9911 1780.00
83.0563 1580.00
83.1215 1469.00
83.1867 1489.00
83.2519 1474.00
83.3171 1312.00
83.3823 1223.00
83.4475 1222.00
83.5127 1241.00
83.5779 1285.00
83.6431 1312.00
83.7083 1335.00
83.7735 1253.00
83.8387 1208.00
83.9039 1197.00
83.9691 1166.00
84.0343 1116.00
84.0995 960.00
84.1647 984.00
84.2299 921.00
84.2951 946.00
84.3603 944.00
84.4255 1039.00
84.4907 1138.00
84.5559 1163.00
84.6211 1384.00
84.6863 1714.00
84.7515 1824.00
84.8167 1599.00
84.8819 1450.00
84.9471 1438.00
85.0123 1366.00
85.0775 1189.00
85.1427 1036.00
85.2079 957.00
85.2731 873.00
85.3383 837.00
85.4035 819.00
85.4687 804.00
85.5339 767.00
85.5991 822.00
85.6643 784.00
85.7295 766.00
85.7946 704.00
85.8598 764.00
85.925 686.00
85.9903 785.00
86.0554 926.00
86.1206 1273.00
86.1858 1593.00
86.251 1077.00
86.3162 939.00
86.3814 1028.00
86.4466 1130.00
86.5118 908.00
86.577 778.00
86.6422 761.00
86.7074 750.00
86.7726 695.00
86.8378 645.00
86.903 639.00
86.9682 721.00
87.0334 703.00
87.0986 770.00
87.1638 827.00
87.229 952.00
87.2942 824.00
87.3594 760.00
87.4246 774.00
87.4898 900.00
87.555 771.00
87.6202 788.00
87.6854 787.00
87.7506 867.00
87.8158 956.00
87.881 1125.00
87.9462 1032.00
88.0114 964.00
88.0766 869.00
88.1418 938.00
88.207 873.00
88.2722 793.00
88.3374 720.00
88.4026 707.00
88.4678 676.00
88.533 695.00
88.5982 695.00
88.6634 651.00
88.7286 696.00
88.7938 716.00
88.859 699.00
88.9242 761.00
88.9894 704.00
89.0546 703.00
89.1198 721.00
89.185 738.00
89.2502 728.00
89.3154 793.00
89.3806 844.00
89.4458 879.00
89.511 969.00
89.5762 1021.00
89.6414 1057.00
89.7066 1141.00
89.7718 1013.00
89.837 1060.00
89.9022 1028.00
89.9674 966.00
90.0326 945.00
90.0978 925.00
90.163 866.00
90.2282 766.00
90.2934 785.00
90.3586 784.00
90.4238 794.00
90.489 731.00
90.5542 789.00
90.6193 752.00
90.6845 740.00
90.7497 757.00
90.8149 679.00
90.8801 737.00
90.9453 746.00
91.0105 747.00
91.0757 744.00
91.1409 792.00
91.2061 806.00
91.2713 831.00
91.3365 893.00
91.4017 1128.00
91.4669 1396.00
91.5321 1004.00
91.5973 869.00
91.6625 954.00
91.7277 992.00
91.7929 884.00
91.8581 717.00
91.9233 749.00
91.9885 672.00
92.0537 689.00
92.1189 630.00
92.1841 664.00
92.2493 644.00
92.3145 677.00
92.3797 703.00
92.4449 717.00
92.5101 703.00
92.5753 796.00
92.6405 820.00
92.7057 706.00
92.7709 665.00
92.8361 678.00
92.9013 765.00
92.9665 753.00
93.0317 694.00
93.0969 817.00
93.1621 1064.00
93.2273 1073.00
93.2925 853.00
93.3577 799.00
93.4229 759.00
93.4881 922.00
93.5533 838.00
93.6185 767.00
93.6837 681.00
93.7489 624.00
93.8141 696.00
93.8793 681.00
93.9445 572.00
94.0097 666.00
94.0749 668.00
94.1401 687.00
94.2053 749.00
94.2705 834.00
94.3357 731.00
94.4009 654.00
94.4661 681.00
94.5313 691.00
94.5965 650.00
94.6617 670.00
94.7269 591.00
94.7921 558.00
94.8573 593.00
94.9225 562.00
94.9877 617.00
95.0529 621.00
95.1181 607.00
95.1833 598.00
95.2485 593.00
95.3137 620.00
95.3789 557.00
95.444 601.00
95.5092 550.00
95.5744 577.00
95.6396 636.00
95.7048 628.00
95.77 637.00
95.8352 703.00
95.9004 1022.00
95.9656 927.00
96.0308 769.00
96.096 649.00
96.1612 705.00
96.2264 812.00
96.2916 715.00
96.3568 635.00
96.422 608.00
96.4872 621.00
96.5524 598.00
96.6176 613.00
96.6828 730.00
96.748 691.00
96.8132 650.00
96.8784 637.00
96.9436 638.00
97.0088 674.00
97.074 622.00
97.1392 652.00
97.2044 619.00
97.2696 653.00
97.3348 688.00
97.4 674.00
97.4652 749.00
97.5304 783.00
97.5956 897.00
97.6608 896.00
97.726 1020.00
97.7912 989.00
97.8564 924.00
97.9216 944.00
97.9868 912.00
98.052 930.00
98.1172 836.00
98.1824 869.00
98.2476 763.00
98.3128 689.00
98.378 699.00
98.4432 704.00
98.5084 742.00
98.5736 714.00
98.6388 701.00
98.704 688.00
98.7692 728.00
98.8344 728.00
98.8996 734.00
98.9648 674.00
99.03 680.00
99.0952 637.00
99.1604 588.00
99.2256 635.00
99.2908 619.00
99.356 647.00
99.4212 642.00
99.4864 602.00
99.5516 547.00
99.6168 558.00
99.682 588.00
99.7472 633.00
99.8124 577.00
99.8776 562.00
99.9428 598.00
100.008 630.00
100.073 592.00
100.095 602.00