File: data/xrd_creation/results/PG_2238-1.xy
9.903433 3046.00
9.968632 3118.00
10.0338 3057.00
10.099 3148.00
10.1642 2922.00
10.2294 2972.00
10.2946 2919.00
10.3598 2998.00
10.425 2917.00
10.4902 2953.00
10.5554 3023.00
10.6206 2846.00
10.6858 2906.00
10.751 2833.00
10.8162 2835.00
10.8814 2782.00
10.9466 2849.00
11.0118 2926.00
11.077 2770.00
11.1422 2802.00
11.2074 2771.00
11.2726 2782.00
11.3378 2738.00
11.403 2665.00
11.4682 2643.00
11.5334 2777.00
11.5986 2819.00
11.6638 2761.00
11.729 2720.00
11.7942 2742.00
11.8594 2720.00
11.9246 2715.00
11.9898 2636.00
12.055 2623.00
12.1202 2673.00
12.1854 2654.00
12.2506 2693.00
12.3158 2689.00
12.381 2674.00
12.4462 2650.00
12.5114 2695.00
12.5766 2599.00
12.6418 2672.00
12.707 2652.00
12.7722 2538.00
12.8374 2647.00
12.9026 2677.00
12.9678 2603.00
13.033 2577.00
13.0982 2541.00
13.1634 2569.00
13.2286 2496.00
13.2938 2590.00
13.359 2561.00
13.4242 2518.00
13.4894 2583.00
13.5546 2617.00
13.6198 2619.00
13.685 2555.00
13.7502 2507.00
13.8154 2575.00
13.8805 2467.00
13.9457 2495.00
14.0109 2444.00
14.0761 2484.00
14.1413 2515.00
14.2065 2568.00
14.2717 2460.00
14.3369 2475.00
14.4021 2464.00
14.4673 2476.00
14.5325 2400.00
14.5977 2433.00
14.6629 2395.00
14.7281 2436.00
14.7933 2399.00
14.8585 2515.00
14.9237 2388.00
14.9889 2452.00
15.0541 2442.00
15.1193 2420.00
15.1845 2366.00
15.2497 2409.00
15.3149 2397.00
15.3801 2390.00
15.4453 2395.00
15.5105 2469.00
15.5757 2348.00
15.6409 2355.00
15.7061 2329.00
15.7713 2439.00
15.8365 2395.00
15.9017 2568.00
15.9669 2495.00
16.0321 2467.00
16.0973 2519.00
16.1625 2418.00
16.2277 2404.00
16.2929 2346.00
16.3581 2373.00
16.4233 2429.00
16.4885 2406.00
16.5537 2373.00
16.6189 2449.00
16.6841 2321.00
16.7493 2432.00
16.8145 2360.00
16.8797 2522.00
16.9449 2501.00
17.0101 2522.00
17.0753 2498.00
17.1405 2584.00
17.2057 2492.00
17.2709 2559.00
17.3361 2476.00
17.4013 2621.00
17.4665 2565.00
17.5317 2429.00
17.5969 2282.00
17.6621 2307.00
17.7273 2295.00
17.7925 2408.00
17.8577 2271.00
17.9229 2265.00
17.9881 2269.00
18.0533 2268.00
18.1185 2313.00
18.1837 2304.00
18.2489 2187.00
18.3141 2130.00
18.3793 2187.00
18.4445 2173.00
18.5097 2159.00
18.5749 2187.00
18.6401 2225.00
18.7052 2274.00
18.7704 2245.00
18.8356 2134.00
18.9008 2171.00
18.966 2101.00
19.0312 2118.00
19.0964 2254.00
19.1616 2196.00
19.2268 2253.00
19.292 2258.00
19.3572 2168.00
19.4224 2150.00
19.4876 2147.00
19.5528 2184.00
19.618 2086.00
19.6832 2230.00
19.7484 2114.00
19.8136 2167.00
19.8788 2128.00
19.944 2158.00
20.0092 2091.00
20.0744 2176.00
20.1396 2149.00
20.2048 2148.00
20.27 2117.00
20.3352 2121.00
20.4004 2175.00
20.4656 2079.00
20.5308 2047.00
20.596 2169.00
20.6612 2169.00
20.7264 2044.00
20.7916 2031.00
20.8568 2056.00
20.922 2140.00
20.9872 2124.00
21.0524 2150.00
21.1176 2260.00
21.1828 2046.00
21.248 2133.00
21.3132 2164.00
21.3784 2231.00
21.4436 2170.00
21.5088 2291.00
21.574 2697.00
21.6392 3111.00
21.7044 3256.00
21.7696 2569.00
21.8348 2208.00
21.9 2159.00
21.9652 2109.00
22.0304 2218.00
22.0956 2250.00
22.1608 2232.00
22.226 2390.00
22.2912 2398.00
22.3564 2393.00
22.4216 2426.00
22.4868 2688.00
22.552 2968.00
22.6172 3437.00
22.6824 4636.00
22.7476 7750.00
22.8128 13575.00
22.878 23245.00
22.9432 27546.00
23.0084 14872.00
23.0736 5423.00
23.1388 3401.00
23.204 2901.00
23.2692 2679.00
23.3344 2535.00
23.3996 2477.00
23.4647 2309.00
23.5299 2251.00
23.5951 2330.00
23.6603 2303.00
23.7255 2366.00
23.7907 2449.00
23.8559 2347.00
23.9211 2331.00
23.9863 2272.00
24.0515 2326.00
24.1167 2298.00
24.1819 2123.00
24.2471 2196.00
24.3123 2242.00
24.3775 2228.00
24.4427 2281.00
24.5079 2195.00
24.5731 2123.00
24.6383 2164.00
24.7035 2252.00
24.7687 2249.00
24.8339 2135.00
24.8991 2077.00
24.9643 2097.00
25.0295 2187.00
25.0947 2167.00
25.1599 2207.00
25.2251 2129.00
25.2903 2138.00
25.3555 2269.00
25.4207 2160.00
25.4859 2248.00
25.5511 2167.00
25.6163 2146.00
25.6815 2133.00
25.7467 2183.00
25.8119 2267.00
25.8771 2250.00
25.9423 2179.00
26.0075 2106.00
26.0727 2139.00
26.1379 2112.00
26.2031 2190.00
26.2683 2202.00
26.3335 2148.00
26.3987 2194.00
26.4639 2295.00
26.5291 2166.00
26.5943 2291.00
26.6595 2203.00
26.7247 2256.00
26.7899 2208.00
26.8551 2422.00
26.9203 2434.00
26.9855 2519.00
27.0507 2579.00
27.1159 2648.00
27.1811 2666.00
27.2463 2737.00
27.3115 2943.00
27.3767 2919.00
27.4419 2839.00
27.5071 2925.00
27.5723 2945.00
27.6375 3091.00
27.7027 3002.00
27.7679 2989.00
27.8331 3105.00
27.8983 3017.00
27.9635 3097.00
28.0287 3218.00
28.0939 3327.00
28.1591 3519.00
28.2243 3794.00
28.2894 4455.00
28.3546 5543.00
28.4198 7369.00
28.485 10214.00
28.5502 13470.00
28.6154 15775.00
28.6806 13319.00
28.7458 9586.00
28.811 6596.00
28.8762 5360.00
28.9414 4953.00
29.0066 5224.00
29.0718 5868.00
29.137 7737.00
29.2022 10010.00
29.2674 10777.00
29.3326 8404.00
29.3978 5613.00
29.463 4050.00
29.5282 3390.00
29.5934 3230.00
29.6586 2782.00
29.7238 2996.00
29.789 2882.00
29.8542 2759.00
29.9194 2593.00
29.9846 2393.00
30.0498 2339.00
30.115 2256.00
30.1802 2249.00
30.2454 2171.00
30.3106 2220.00
30.3758 2115.00
30.441 2220.00
30.5062 2095.00
30.5714 2105.00
30.6366 2032.00
30.7018 2123.00
30.767 2198.00
30.8322 2460.00
30.8974 2889.00
30.9626 3202.00
31.0278 2620.00
31.093 2195.00
31.1582 2092.00
31.2234 2087.00
31.2886 2047.00
31.3538 2059.00
31.419 1970.00
31.4842 1961.00
31.5494 2023.00
31.6146 2077.00
31.6798 1996.00
31.745 1987.00
31.8102 1959.00
31.8754 2072.00
31.9406 2200.00
32.0058 2690.00
32.071 3526.00
32.1362 4066.00
32.2014 3313.00
32.2666 2497.00
32.3318 2098.00
32.397 2059.00
32.4622 2043.00
32.5274 1987.00
32.5926 1910.00
32.6578 1928.00
32.723 1935.00
32.7882 1913.00
32.8534 2039.00
32.9186 2062.00
32.9838 1945.00
33.0489 2098.00
33.1141 2073.00
33.1793 2011.00
33.2445 2006.00
33.3097 1927.00
33.3749 1917.00
33.4401 1998.00
33.5053 1860.00
33.5705 1869.00
33.6357 1902.00
33.7009 1853.00
33.7661 1904.00
33.8313 1864.00
33.8965 1932.00
33.9617 2038.00
34.0269 1889.00
34.0921 2018.00
34.1573 1979.00
34.2225 2045.00
34.2877 2101.00
34.3529 2177.00
34.4181 2355.00
34.4833 2313.00
34.5485 2130.00
34.6137 2004.00
34.6789 1940.00
34.7441 1959.00
34.8093 1831.00
34.8745 1804.00
34.9397 1855.00
35.0049 1844.00
35.0701 1893.00
35.1353 1843.00
35.2005 1778.00
35.2657 1879.00
35.3309 1830.00
35.3961 1849.00
35.4613 1902.00
35.5265 2078.00
35.5917 2005.00
35.6569 2145.00
35.7221 2276.00
35.7873 2214.00
35.8525 2256.00
35.9177 2211.00
35.9829 2295.00
36.0481 2270.00
36.1133 2306.00
36.1785 2307.00
36.2437 2295.00
36.3089 2499.00
36.3741 2796.00
36.4393 2983.00
36.5045 2966.00
36.5697 3156.00
36.6349 3879.00
36.7001 5130.00
36.7653 6919.00
36.8305 7639.00
36.8957 6525.00
36.9609 5004.00
37.0261 3918.00
37.0913 3516.00
37.1565 3842.00
37.2217 4758.00
37.2869 5866.00
37.3521 5912.00
37.4173 4690.00
37.4825 3404.00
37.5477 2703.00
37.6129 2346.00
37.6781 2190.00
37.7433 2128.00
37.8085 2071.00
37.8736 2117.00
37.9388 1884.00
38.004 1867.00
38.0692 1808.00
38.1344 1771.00
38.1996 1780.00
38.2648 1768.00
38.33 1775.00
38.3952 1606.00
38.4604 1680.00
38.5256 1711.00
38.5908 1683.00
38.656 1689.00
38.7212 1714.00
38.7864 1557.00
38.8516 1687.00
38.9168 1729.00
38.982 1673.00
39.0472 1720.00
39.1124 1713.00
39.1776 1711.00
39.2428 1541.00
39.308 1609.00
39.3732 1569.00
39.4384 1668.00
39.5036 1644.00
39.5688 1660.00
39.634 1611.00
39.6992 1753.00
39.7644 1730.00
39.8296 1728.00
39.8948 2022.00
39.96 1882.00
40.0252 1758.00
40.0904 1689.00
40.1556 1714.00
40.2208 1771.00
40.286 1815.00
40.3512 1805.00
40.4164 1685.00
40.4816 1582.00
40.5468 1668.00
40.612 1595.00
40.6772 1603.00
40.7424 1682.00
40.8076 1565.00
40.8728 1639.00
40.938 1673.00
41.0032 1607.00
41.0684 1624.00
41.1336 1669.00
41.1988 1581.00
41.264 1523.00
41.3292 1543.00
41.3944 1561.00
41.4596 1696.00
41.5248 1621.00
41.59 1643.00
41.6552 1628.00
41.7204 1671.00
41.7856 1671.00
41.8508 1564.00
41.916 1622.00
41.9812 1625.00
42.0464 1614.00
42.1116 1578.00
42.1768 1587.00
42.242 1573.00
42.3072 1641.00
42.3724 1549.00
42.4376 1659.00
42.5028 1595.00
42.568 1667.00
42.6332 1646.00
42.6983 1722.00
42.7635 1737.00
42.8287 1714.00
42.8939 1799.00
42.9591 1838.00
43.0243 1810.00
43.0895 1703.00
43.1547 1787.00
43.2199 1810.00
43.2851 1717.00
43.3503 1780.00
43.4155 1774.00
43.4807 1797.00
43.5459 1759.00
43.6111 1702.00
43.6763 1775.00
43.7415 1845.00
43.8067 1775.00
43.8719 1822.00
43.9371 1727.00
44.0023 1727.00
44.0675 1712.00
44.1327 1701.00
44.1979 1733.00
44.2631 1754.00
44.3283 1754.00
44.3935 1831.00
44.4587 1932.00
44.5239 1956.00
44.5891 2090.00
44.6543 2189.00
44.7195 2254.00
44.7847 2352.00
44.8499 2291.00
44.9151 2159.00
44.9803 2208.00
45.0455 2082.00
45.1107 2178.00
45.1759 2140.00
45.2411 2130.00
45.3063 2183.00
45.3715 2187.00
45.4367 2178.00
45.5019 2062.00
45.5671 2053.00
45.6323 1933.00
45.6975 1899.00
45.7627 1802.00
45.8279 1879.00
45.8931 1852.00
45.9583 1916.00
46.0235 1835.00
46.0887 1789.00
46.1539 1937.00
46.2191 2215.00
46.2843 2964.00
46.3495 5034.00
46.4147 7174.00
46.4799 6178.00
46.5451 4751.00
46.6103 3134.00
46.6755 2147.00
46.7407 1878.00
46.8059 1776.00
46.8711 1739.00
46.9363 1770.00
47.0015 1661.00
47.0667 1652.00
47.1319 1684.00
47.1971 1594.00
47.2623 1636.00
47.3275 1648.00
47.3927 1609.00
47.4579 1598.00
47.523 1691.00
47.5882 1671.00
47.6534 1717.00
47.7186 1618.00
47.7838 1626.00
47.849 1674.00
47.9142 1635.00
47.9794 1686.00
48.0446 1728.00
48.1098 1688.00
48.175 1585.00
48.2402 1739.00
48.3054 1690.00
48.3706 1688.00
48.4358 1698.00
48.501 1707.00
48.5662 1755.00
48.6314 1759.00
48.6966 1647.00
48.7618 1813.00
48.827 1825.00
48.8922 1885.00
48.9574 1912.00
49.0226 1944.00
49.0878 2075.00
49.153 2154.00
49.2182 2172.00
49.2834 2120.00
49.3486 2182.00
49.4138 2200.00
49.479 2289.00
49.5442 2490.00
49.6094 2638.00
49.6746 2830.00
49.7398 3209.00
49.805 3883.00
49.8702 4232.00
49.9354 4451.00
50.0006 4448.00
50.0658 4031.00
50.131 3519.00
50.1962 3366.00
50.2614 3040.00
50.3266 2737.00
50.3918 2545.00
50.457 2495.00
50.5222 2583.00
50.5874 2467.00
50.6526 2477.00
50.7178 2474.00
50.783 2618.00
50.8482 2595.00
50.9134 2484.00
50.9786 2610.00
51.0438 2691.00
51.109 2861.00
51.1742 3046.00
51.2394 2913.00
51.3046 2828.00
51.3698 2428.00
51.435 2283.00
51.5002 2208.00
51.5654 2184.00
51.6306 2070.00
51.6958 2151.00
51.761 2038.00
51.8262 2087.00
51.8914 2115.00
51.9566 2191.00
52.0218 2119.00
52.087 2177.00
52.1522 2059.00
52.2174 2120.00
52.2826 2112.00
52.3477 2027.00
52.4129 2000.00
52.4781 2004.00
52.5433 1974.00
52.6085 1919.00
52.6737 1906.00
52.7389 1793.00
52.8041 1865.00
52.8693 1710.00
52.9345 1750.00
52.9997 1740.00
53.0649 1800.00
53.1301 1688.00
53.1953 1722.00
53.2605 1689.00
53.3257 1762.00
53.3909 1711.00
53.4561 1786.00
53.5213 1648.00
53.5865 1727.00
53.6517 1719.00
53.7169 1749.00
53.7821 1770.00
53.8473 1636.00
53.9125 1633.00
53.9777 1634.00
54.0429 1694.00
54.1081 1720.00
54.1733 1683.00
54.2385 1755.00
54.3037 1787.00
54.3689 1804.00
54.4341 1914.00
54.4993 1932.00
54.5645 1993.00
54.6297 1920.00
54.6949 2024.00
54.7601 2106.00
54.8253 2095.00
54.8905 2185.00
54.9557 2242.00
55.0209 2536.00
55.0861 2879.00
55.1513 3541.00
55.2165 4535.00
55.2817 5380.00
55.3469 5551.00
55.4121 5743.00
55.4773 5322.00
55.5425 5127.00
55.6077 5101.00
55.6729 4797.00
55.7381 4178.00
55.8033 3611.00
55.8685 3053.00
55.9337 2693.00
55.9989 2469.00
56.0641 2349.00
56.1293 2164.00
56.1945 2020.00
56.2597 2029.00
56.3249 2083.00
56.3901 2044.00
56.4553 2103.00
56.5205 2227.00
56.5857 2369.00
56.6509 2460.00
56.7161 2420.00
56.7813 2277.00
56.8465 2187.00
56.9117 2142.00
56.9769 2116.00
57.042 2107.00
57.1073 2229.00
57.1724 2082.00
57.2376 2168.00
57.3028 2154.00
57.368 1983.00
57.4332 2057.00
57.4984 2088.00
57.5636 2063.00
57.6288 2026.00
57.694 2004.00
57.7592 1965.00
57.8244 1998.00
57.8896 1898.00
57.9548 1869.00
58.02 1994.00
58.0852 1947.00
58.1504 1883.00
58.2156 1893.00
58.2808 1868.00
58.346 1891.00
58.4112 1844.00
58.4764 1841.00
58.5416 1925.00
58.6068 1957.00
58.672 1965.00
58.7372 2102.00
58.8024 2197.00
58.8676 2220.00
58.9328 2124.00
58.998 2104.00
59.0632 1985.00
59.1284 1950.00
59.1936 1914.00
59.2588 1807.00
59.324 1884.00
59.3892 1768.00
59.4544 1817.00
59.5196 1720.00
59.5848 1791.00
59.65 1718.00
59.7152 1745.00
59.7804 1768.00
59.8456 1822.00
59.9108 1886.00
59.976 1944.00
60.0412 2119.00
60.1064 2146.00
60.1716 2310.00
60.2368 2272.00
60.302 2111.00
60.3672 2077.00
60.4324 1980.00
60.4976 1870.00
60.5628 1766.00
60.628 1796.00
60.6932 1701.00
60.7584 1714.00
60.8236 1654.00
60.8888 1628.00
60.954 1697.00
61.0192 1705.00
61.0844 1683.00
61.1496 1735.00
61.2148 1670.00
61.28 1699.00
61.3452 1783.00
61.4104 1801.00
61.4756 1873.00
61.5408 1722.00
61.606 1871.00
61.6712 1815.00
61.7364 1911.00
61.8016 1772.00
61.8667 1873.00
61.932 1888.00
61.9971 1878.00
62.0623 1827.00
62.1275 1899.00
62.1927 1946.00
62.2579 1804.00
62.3231 1887.00
62.3883 1852.00
62.4535 1866.00
62.5187 1813.00
62.5839 1803.00
62.6491 1868.00
62.7143 1878.00
62.7795 1745.00
62.8447 1784.00
62.9099 1777.00
62.9751 1659.00
63.0403 1745.00
63.1055 1733.00
63.1707 1795.00
63.2359 1784.00
63.3011 1809.00
63.3663 1812.00
63.4315 1772.00
63.4967 1884.00
63.5619 1960.00
63.6271 1940.00
63.6923 2057.00
63.7575 2039.00
63.8227 2156.00
63.8879 2251.00
63.9531 2115.00
64.0183 2036.00
64.0835 1933.00
64.1487 1859.00
64.2139 1857.00
64.2791 1804.00
64.3443 1807.00
64.4095 1686.00
64.4747 1711.00
64.5399 1636.00
64.6051 1690.00
64.6703 1684.00
64.7355 1752.00
64.8007 1876.00
64.8659 1732.00
64.9311 1883.00
64.9963 1916.00
65.0615 1988.00
65.1267 2009.00
65.1919 2096.00
65.2571 1979.00
65.3223 1900.00
65.3875 1889.00
65.4527 1888.00
65.5179 1769.00
65.5831 1737.00
65.6483 1752.00
65.7135 1775.00
65.7787 1734.00
65.8439 1791.00
65.9091 1770.00
65.9743 1683.00
66.0395 1718.00
66.1047 1724.00
66.1699 1775.00
66.2351 1691.00
66.3003 1915.00
66.3655 1786.00
66.4307 1815.00
66.4959 1774.00
66.561 1819.00
66.6263 1790.00
66.6915 1795.00
66.7566 1723.00
66.8218 1838.00
66.887 1766.00
66.9522 1720.00
67.0174 1713.00
67.0826 1761.00
67.1478 1759.00
67.213 1769.00
67.2782 1732.00
67.3434 1696.00
67.4086 1753.00
67.4738 1706.00
67.539 1650.00
67.6042 1676.00
67.6694 1629.00
67.7346 1580.00
67.7998 1711.00
67.865 1630.00
67.9302 1722.00
67.9954 1673.00
68.0606 1757.00
68.1258 1700.00
68.191 1732.00
68.2562 1724.00
68.3214 1768.00
68.3866 1722.00
68.4518 1681.00
68.517 1739.00
68.5822 1640.00
68.6474 1630.00
68.7126 1676.00
68.7778 1612.00
68.843 1563.00
68.9082 1595.00
68.9734 1666.00
69.0386 1630.00
69.1038 1581.00
69.169 1633.00
69.2342 1609.00
69.2994 1541.00
69.3646 1607.00
69.4298 1550.00
69.495 1495.00
69.5602 1608.00
69.6254 1612.00
69.6906 1585.00
69.7558 1640.00
69.821 1655.00
69.8862 1694.00
69.9514 1817.00
70.0166 1776.00
70.0818 1975.00
70.147 2153.00
70.2122 2235.00
70.2774 2540.00
70.3426 2555.00
70.4078 2517.00
70.473 2576.00
70.5382 2348.00
70.6034 2114.00
70.6686 2095.00
70.7338 1924.00
70.799 1851.00
70.8642 1842.00
70.9294 1824.00
70.9946 1696.00
71.0598 1706.00
71.125 1769.00
71.1902 1791.00
71.2554 1815.00
71.3205 1926.00
71.3858 1982.00
71.451 1871.00
71.5162 1843.00
71.5813 1784.00
71.6465 1840.00
71.7117 1707.00
71.7769 1734.00
71.8421 1717.00
71.9073 1678.00
71.9725 1749.00
72.0377 1806.00
72.1029 1864.00
72.1681 1984.00
72.2333 2005.00
72.2985 1814.00
72.3637 1802.00
72.4289 1685.00
72.4941 1725.00
72.5593 1734.00
72.6245 1683.00
72.6897 1615.00
72.7549 1621.00
72.8201 1544.00
72.8853 1488.00
72.9505 1604.00
73.0157 1456.00
73.0809 1479.00
73.1461 1464.00
73.2113 1440.00
73.2765 1557.00
73.3417 1525.00
73.4069 1425.00
73.4721 1523.00
73.5373 1548.00
73.6025 1507.00
73.6677 1496.00
73.7329 1452.00
73.7981 1467.00
73.8633 1485.00
73.9285 1475.00
73.9937 1542.00
74.0589 1473.00
74.1241 1516.00
74.1893 1564.00
74.2545 1545.00
74.3197 1573.00
74.3849 1527.00
74.4501 1559.00
74.5153 1574.00
74.5805 1530.00
74.6457 1545.00
74.7109 1476.00
74.7761 1506.00
74.8413 1480.00
74.9065 1595.00
74.9717 1495.00
75.0369 1527.00
75.1021 1561.00
75.1673 1487.00
75.2325 1554.00
75.2977 1491.00
75.3629 1597.00
75.4281 1538.00
75.4933 1552.00
75.5585 1546.00
75.6237 1545.00
75.6889 1518.00
75.7541 1539.00
75.8193 1588.00
75.8845 1580.00
75.9497 1514.00
76.0149 1606.00
76.0801 1566.00
76.1452 1670.00
76.2104 1696.00
76.2756 1543.00
76.3409 1561.00
76.406 1615.00
76.4712 1599.00
76.5364 1652.00
76.6016 1632.00
76.6668 1657.00
76.732 1640.00
76.7972 1633.00
76.8624 1554.00
76.9276 1593.00
76.9928 1536.00
77.058 1548.00
77.1232 1495.00
77.1884 1559.00
77.2536 1616.00
77.3188 1540.00
77.384 1595.00
77.4492 1662.00
77.5144 1686.00
77.5796 1641.00
77.6448 1714.00
77.71 1725.00
77.7752 1768.00
77.8404 1916.00
77.9056 1851.00
77.9708 1859.00
78.036 1738.00
78.1012 1725.00
78.1664 1736.00
78.2316 1665.00
78.2968 1684.00
78.362 1523.00
78.4272 1698.00
78.4924 1614.00
78.5576 1661.00
78.6228 1654.00
78.688 1763.00
78.7532 1701.00
78.8184 1755.00
78.8836 1732.00
78.9488 1816.00
79.014 1844.00
79.0792 1830.00
79.1444 1878.00
79.2096 1959.00
79.2748 1967.00
79.34 1848.00
79.4052 1772.00
79.4704 1890.00
79.5356 1867.00
79.6008 1736.00
79.666 1781.00
79.7312 1751.00
79.7964 1637.00
79.8616 1687.00
79.9268 1704.00
79.992 1808.00
80.0572 1650.00
80.1224 1678.00
80.1876 1789.00
80.2528 1673.00
80.318 1707.00
80.3832 1725.00
80.4484 1708.00
80.5136 1639.00
80.5788 1593.00
80.644 1643.00
80.7092 1624.00
80.7744 1552.00
80.8396 1621.00
80.9048 1596.00
80.9699 1585.00
81.0351 1567.00
81.1003 1618.00
81.1655 1629.00
81.2307 1512.00
81.2959 1645.00
81.3611 1673.00
81.4263 1566.00
81.4915 1599.00
81.5567 1542.00
81.6219 1603.00
81.6871 1611.00
81.7523 1609.00
81.8175 1579.00
81.8827 1640.00
81.9479 1678.00
82.0131 1624.00
82.0783 1615.00
82.1435 1667.00
82.2087 1687.00
82.2739 1536.00
82.3391 1594.00
82.4043 1594.00
82.4695 1587.00
82.5347 1563.00
82.5999 1693.00
82.6651 1499.00
82.7303 1555.00
82.7955 1595.00
82.8607 1502.00
82.9259 1608.00
82.9911 1498.00
83.0563 1486.00
83.1215 1606.00
83.1867 1538.00
83.2519 1511.00
83.3171 1540.00
83.3823 1506.00
83.4475 1653.00
83.5127 1528.00
83.5779 1573.00
83.6431 1552.00
83.7083 1504.00
83.7735 1544.00
83.8387 1522.00
83.9039 1493.00
83.9691 1496.00
84.0343 1434.00
84.0995 1596.00
84.1647 1500.00
84.2299 1524.00
84.2951 1556.00
84.3603 1580.00
84.4255 1601.00
84.4907 1653.00
84.5559 1705.00
84.6211 1664.00
84.6863 1655.00
84.7515 1714.00
84.8167 1647.00
84.8819 1608.00
84.9471 1632.00
85.0123 1537.00
85.0775 1505.00
85.1427 1558.00
85.2079 1625.00
85.2731 1609.00
85.3383 1611.00
85.4035 1612.00
85.4687 1581.00
85.5339 1486.00
85.5991 1604.00
85.6643 1494.00
85.7295 1441.00
85.7946 1458.00
85.8598 1537.00
85.925 1492.00
85.9903 1497.00
86.0554 1454.00
86.1206 1460.00
86.1858 1486.00
86.251 1495.00
86.3162 1612.00
86.3814 1532.00
86.4466 1527.00
86.5118 1507.00
86.577 1450.00
86.6422 1488.00
86.7074 1492.00
86.7726 1431.00
86.8378 1524.00
86.903 1457.00
86.9682 1489.00
87.0334 1463.00
87.0986 1476.00
87.1638 1466.00
87.229 1518.00
87.2942 1368.00
87.3594 1454.00
87.4246 1430.00
87.4898 1449.00
87.555 1504.00
87.6202 1494.00
87.6854 1467.00
87.7506 1531.00
87.8158 1475.00
87.881 1516.00
87.9462 1579.00
88.0114 1461.00
88.0766 1442.00
88.1418 1475.00
88.207 1482.00
88.2722 1446.00
88.3374 1479.00
88.4026 1560.00
88.4678 1575.00
88.533 1490.00
88.5982 1477.00
88.6634 1415.00
88.7286 1426.00
88.7938 1405.00
88.859 1436.00
88.9242 1468.00
88.9894 1515.00
89.0546 1522.00
89.1198 1416.00
89.185 1424.00
89.2502 1478.00
89.3154 1537.00
89.3806 1481.00
89.4458 1445.00
89.511 1433.00
89.5762 1460.00
89.6414 1376.00
89.7066 1476.00
89.7718 1421.00
89.837 1380.00
89.9022 1399.00
89.9674 1433.00
90.0326 1448.00
90.0978 1455.00
90.163 1421.00
90.2282 1532.00
90.2934 1452.00
90.3586 1411.00
90.4238 1421.00
90.489 1478.00
90.5542 1468.00
90.6193 1425.00
90.6845 1457.00
90.7497 1543.00
90.8149 1534.00
90.8801 1473.00
90.9453 1440.00
91.0105 1453.00
91.0757 1510.00
91.1409 1432.00
91.2061 1427.00
91.2713 1397.00
91.3365 1414.00
91.4017 1489.00
91.4669 1489.00
91.5321 1524.00
91.5973 1568.00
91.6625 1494.00
91.7277 1485.00
91.7929 1443.00
91.8581 1473.00
91.9233 1555.00
91.9885 1507.00
92.0537 1538.00
92.1189 1543.00
92.1841 1542.00
92.2493 1475.00
92.3145 1579.00
92.3797 1485.00
92.4449 1628.00
92.5101 1587.00
92.5753 1712.00
92.6405 1627.00
92.7057 1588.00
92.7709 1694.00
92.8361 1612.00
92.9013 1600.00
92.9665 1553.00
93.0317 1507.00
93.0969 1556.00
93.1621 1570.00
93.2273 1512.00
93.2925 1493.00
93.3577 1431.00
93.4229 1617.00
93.4881 1511.00
93.5533 1559.00
93.6185 1554.00
93.6837 1563.00
93.7489 1564.00
93.8141 1534.00
93.8793 1537.00
93.9445 1495.00
94.0097 1494.00
94.0749 1535.00
94.1401 1499.00
94.2053 1562.00
94.2705 1540.00
94.3357 1598.00
94.4009 1515.00
94.4661 1585.00
94.5313 1578.00
94.5965 1562.00
94.6617 1551.00
94.7269 1567.00
94.7921 1567.00
94.8573 1527.00
94.9225 1561.00
94.9877 1584.00
95.0529 1589.00
95.1181 1568.00
95.1833 1560.00
95.2485 1583.00
95.3137 1580.00
95.3789 1592.00
95.444 1529.00
95.5092 1542.00
95.5744 1634.00
95.6396 1583.00
95.7048 1593.00
95.77 1606.00
95.8352 1548.00
95.9004 1506.00
95.9656 1567.00
96.0308 1559.00
96.096 1612.00
96.1612 1536.00
96.2264 1536.00
96.2916 1569.00
96.3568 1573.00
96.422 1558.00
96.4872 1565.00
96.5524 1571.00
96.6176 1525.00
96.6828 1554.00
96.748 1645.00
96.8132 1604.00
96.8784 1608.00
96.9436 1631.00
97.0088 1568.00
97.074 1549.00
97.1392 1603.00
97.2044 1642.00
97.2696 1549.00
97.3348 1591.00
97.4 1665.00
97.4652 1631.00
97.5304 1697.00
97.5956 1707.00
97.6608 1703.00
97.726 1646.00
97.7912 1631.00
97.8564 1768.00
97.9216 1635.00
97.9868 1623.00
98.052 1640.00
98.1172 1635.00
98.1824 1708.00
98.2476 1609.00
98.3128 1684.00
98.378 1604.00
98.4432 1557.00
98.5084 1509.00
98.5736 1626.00
98.6388 1595.00
98.704 1689.00
98.7692 1580.00
98.8344 1587.00
98.8996 1676.00
98.9648 1665.00
99.03 1543.00
99.0952 1602.00
99.1604 1581.00
99.2256 1532.00
99.2908 1617.00
99.356 1551.00
99.4212 1675.00
99.4864 1556.00
99.5516 1568.00
99.6168 1585.00
99.682 1650.00
99.7472 1599.00
99.8124 1559.00
99.8776 1509.00
99.9428 1614.00
100.008 1602.00
100.073 1605.00
100.095 1613.00