File: data/xrd_creation/results/PG_2043-1.xy
9.903433 3682.00
9.968632 3577.00
10.0338 3587.00
10.099 3536.00
10.1642 3502.00
10.2294 3436.00
10.2946 3407.00
10.3598 3382.00
10.425 3401.00
10.4902 3496.00
10.5554 3355.00
10.6206 3429.00
10.6858 3415.00
10.751 3327.00
10.8162 3318.00
10.8814 3314.00
10.9466 3345.00
11.0118 3256.00
11.077 3281.00
11.1422 3225.00
11.2074 3158.00
11.2726 3197.00
11.3378 3128.00
11.403 3129.00
11.4682 3163.00
11.5334 3201.00
11.5986 3063.00
11.6638 3070.00
11.729 3134.00
11.7942 3052.00
11.8594 3044.00
11.9246 2963.00
11.9898 2913.00
12.055 2980.00
12.1202 2876.00
12.1854 2813.00
12.2506 2862.00
12.3158 2889.00
12.381 2893.00
12.4462 2857.00
12.5114 2882.00
12.5766 2811.00
12.6418 2906.00
12.707 2828.00
12.7722 2815.00
12.8374 2827.00
12.9026 2766.00
12.9678 2647.00
13.033 2794.00
13.0982 2687.00
13.1634 2775.00
13.2286 2754.00
13.2938 2674.00
13.359 2725.00
13.4242 2668.00
13.4894 2686.00
13.5546 2645.00
13.6198 2713.00
13.685 2683.00
13.7502 2513.00
13.8154 2707.00
13.8805 2652.00
13.9457 2576.00
14.0109 2639.00
14.0761 2567.00
14.1413 2567.00
14.2065 2571.00
14.2717 2543.00
14.3369 2558.00
14.4021 2473.00
14.4673 2546.00
14.5325 2640.00
14.5977 2549.00
14.6629 2564.00
14.7281 2606.00
14.7933 2617.00
14.8585 2467.00
14.9237 2563.00
14.9889 2526.00
15.0541 2567.00
15.1193 2555.00
15.1845 2576.00
15.2497 2595.00
15.3149 2578.00
15.3801 2512.00
15.4453 2515.00
15.5105 2473.00
15.5757 2537.00
15.6409 2517.00
15.7061 2586.00
15.7713 2492.00
15.8365 2440.00
15.9017 2519.00
15.9669 2530.00
16.0321 2555.00
16.0973 2540.00
16.1625 2571.00
16.2277 2526.00
16.2929 2502.00
16.3581 2545.00
16.4233 2553.00
16.4885 2509.00
16.5537 2601.00
16.6189 2570.00
16.6841 2585.00
16.7493 2522.00
16.8145 2592.00
16.8797 2506.00
16.9449 2499.00
17.0101 2617.00
17.0753 2659.00
17.1405 2643.00
17.2057 2576.00
17.2709 2588.00
17.3361 2757.00
17.4013 2731.00
17.4665 2883.00
17.5317 3043.00
17.5969 3207.00
17.6621 3488.00
17.7273 3804.00
17.7925 3145.00
17.8577 2810.00
17.9229 2695.00
17.9881 2676.00
18.0533 2704.00
18.1185 2759.00
18.1837 2684.00
18.2489 2752.00
18.3141 2673.00
18.3793 2664.00
18.4445 2712.00
18.5097 2735.00
18.5749 2908.00
18.6401 2775.00
18.7052 2755.00
18.7704 2880.00
18.8356 2782.00
18.9008 2795.00
18.966 2849.00
19.0312 2889.00
19.0964 2984.00
19.1616 2978.00
19.2268 2892.00
19.292 2951.00
19.3572 2946.00
19.4224 3090.00
19.4876 3044.00
19.5528 3106.00
19.618 2943.00
19.6832 3095.00
19.7484 3078.00
19.8136 3142.00
19.8788 3151.00
19.944 3073.00
20.0092 3187.00
20.0744 3194.00
20.1396 3185.00
20.2048 3240.00
20.27 3165.00
20.3352 3323.00
20.4004 3335.00
20.4656 3245.00
20.5308 3302.00
20.596 3266.00
20.6612 3221.00
20.7264 3420.00
20.7916 3264.00
20.8568 3525.00
20.922 3394.00
20.9872 3471.00
21.0524 3394.00
21.1176 3327.00
21.1828 3403.00
21.248 3524.00
21.3132 3550.00
21.3784 3580.00
21.4436 3487.00
21.5088 3489.00
21.574 3602.00
21.6392 3599.00
21.7044 3578.00
21.7696 3458.00
21.8348 3711.00
21.9 3556.00
21.9652 3642.00
22.0304 3535.00
22.0956 3498.00
22.1608 3557.00
22.226 3598.00
22.2912 3565.00
22.3564 3593.00
22.4216 3553.00
22.4868 3617.00
22.552 3515.00
22.6172 3551.00
22.6824 3520.00
22.7476 3589.00
22.8128 3561.00
22.878 3557.00
22.9432 3574.00
23.0084 3564.00
23.0736 3568.00
23.1388 3490.00
23.204 3622.00
23.2692 3444.00
23.3344 3557.00
23.3996 3452.00
23.4647 3598.00
23.5299 3470.00
23.5951 3506.00
23.6603 3524.00
23.7255 3815.00
23.7907 3648.00
23.8559 4025.00
23.9211 4499.00
23.9863 5379.00
24.0515 7321.00
24.1167 8410.00
24.1819 8728.00
24.2471 5831.00
24.3123 3782.00
24.3775 3294.00
24.4427 3347.00
24.5079 3172.00
24.5731 3249.00
24.6383 3305.00
24.7035 3164.00
24.7687 3138.00
24.8339 3123.00
24.8991 3035.00
24.9643 3061.00
25.0295 2978.00
25.0947 2888.00
25.1599 2992.00
25.2251 2956.00
25.2903 2953.00
25.3555 2929.00
25.4207 2873.00
25.4859 2851.00
25.5511 2869.00
25.6163 2793.00
25.6815 2865.00
25.7467 2797.00
25.8119 2724.00
25.8771 2743.00
25.9423 2736.00
26.0075 2654.00
26.0727 2614.00
26.1379 2656.00
26.2031 2668.00
26.2683 2502.00
26.3335 2672.00
26.3987 2663.00
26.4639 2490.00
26.5291 2431.00
26.5943 2452.00
26.6595 2535.00
26.7247 2501.00
26.7899 2450.00
26.8551 2348.00
26.9203 2378.00
26.9855 2374.00
27.0507 2369.00
27.1159 2352.00
27.1811 2275.00
27.2463 2252.00
27.3115 2290.00
27.3767 2235.00
27.4419 2297.00
27.5071 2255.00
27.5723 2209.00
27.6375 2143.00
27.7027 2149.00
27.7679 2117.00
27.8331 2156.00
27.8983 2234.00
27.9635 2062.00
28.0287 2161.00
28.0939 2072.00
28.1591 2089.00
28.2243 2016.00
28.2894 1972.00
28.3546 2005.00
28.4198 1972.00
28.485 1981.00
28.5502 2030.00
28.6154 1908.00
28.6806 1964.00
28.7458 1946.00
28.811 1911.00
28.8762 1901.00
28.9414 1918.00
29.0066 1843.00
29.0718 1916.00
29.137 1877.00
29.2022 1773.00
29.2674 1884.00
29.3326 1810.00
29.3978 1852.00
29.463 1767.00
29.5282 1747.00
29.5934 1785.00
29.6586 1865.00
29.7238 1911.00
29.789 1999.00
29.8542 2090.00
29.9194 2276.00
29.9846 2404.00
30.0498 2153.00
30.115 1806.00
30.1802 1679.00
30.2454 1738.00
30.3106 1702.00
30.3758 1692.00
30.441 1734.00
30.5062 1761.00
30.5714 1862.00
30.6366 1913.00
30.7018 2122.00
30.767 2670.00
30.8322 3265.00
30.8974 4253.00
30.9626 5678.00
31.0278 6308.00
31.093 4276.00
31.1582 2464.00
31.2234 1735.00
31.2886 1659.00
31.3538 1604.00
31.419 1497.00
31.4842 1553.00
31.5494 1520.00
31.6146 1519.00
31.6798 1525.00
31.745 1535.00
31.8102 1480.00
31.8754 1451.00
31.9406 1378.00
32.0058 1435.00
32.071 1471.00
32.1362 1415.00
32.2014 1441.00
32.2666 1393.00
32.3318 1461.00
32.397 1433.00
32.4622 1402.00
32.5274 1405.00
32.5926 1364.00
32.6578 1401.00
32.723 1356.00
32.7882 1392.00
32.8534 1307.00
32.9186 1324.00
32.9838 1402.00
33.0489 1366.00
33.1141 1318.00
33.1793 1318.00
33.2445 1359.00
33.3097 1288.00
33.3749 1292.00
33.4401 1349.00
33.5053 1239.00
33.5705 1252.00
33.6357 1379.00
33.7009 1332.00
33.7661 1377.00
33.8313 1396.00
33.8965 1344.00
33.9617 1416.00
34.0269 1470.00
34.0921 1637.00
34.1573 1763.00
34.2225 2121.00
34.2877 2597.00
34.3529 2036.00
34.4181 1593.00
34.4833 1336.00
34.5485 1272.00
34.6137 1285.00
34.6789 1184.00
34.7441 1219.00
34.8093 1202.00
34.8745 1188.00
34.9397 1276.00
35.0049 1246.00
35.0701 1240.00
35.1353 1195.00
35.2005 1287.00
35.2657 1269.00
35.3309 1289.00
35.3961 1446.00
35.4613 1519.00
35.5265 1695.00
35.5917 1381.00
35.6569 1226.00
35.7221 1170.00
35.7873 1179.00
35.8525 1127.00
35.9177 1066.00
35.9829 1177.00
36.0481 1115.00
36.1133 1132.00
36.1785 1167.00
36.2437 1138.00
36.3089 1098.00
36.3741 1104.00
36.4393 1139.00
36.5045 1068.00
36.5697 1109.00
36.6349 1056.00
36.7001 1041.00
36.7653 1079.00
36.8305 1119.00
36.8957 1045.00
36.9609 1060.00
37.0261 1055.00
37.0913 1027.00
37.1565 1025.00
37.2217 1059.00
37.2869 1011.00
37.3521 1029.00
37.4173 1047.00
37.4825 1100.00
37.5477 1066.00
37.6129 1026.00
37.6781 1046.00
37.7433 1010.00
37.8085 986.00
37.8736 1032.00
37.9388 1074.00
38.004 1040.00
38.0692 1031.00
38.1344 1010.00
38.1996 991.00
38.2648 1142.00
38.33 1183.00
38.3952 1261.00
38.4604 1288.00
38.5256 1322.00
38.5908 1396.00
38.656 1580.00
38.7212 1642.00
38.7864 1341.00
38.8516 1180.00
38.9168 967.00
38.982 917.00
39.0472 894.00
39.1124 944.00
39.1776 927.00
39.2428 936.00
39.308 957.00
39.3732 968.00
39.4384 967.00
39.5036 931.00
39.5688 876.00
39.634 985.00
39.6992 965.00
39.7644 953.00
39.8296 932.00
39.8948 947.00
39.96 913.00
40.0252 911.00
40.0904 892.00
40.1556 914.00
40.2208 945.00
40.286 907.00
40.3512 926.00
40.4164 925.00
40.4816 962.00
40.5468 964.00
40.612 942.00
40.6772 990.00
40.7424 999.00
40.8076 1064.00
40.8728 1162.00
40.938 1155.00
41.0032 1025.00
41.0684 940.00
41.1336 898.00
41.1988 877.00
41.264 852.00
41.3292 821.00
41.3944 916.00
41.4596 935.00
41.5248 944.00
41.59 894.00
41.6552 937.00
41.7204 932.00
41.7856 875.00
41.8508 890.00
41.916 937.00
41.9812 865.00
42.0464 911.00
42.1116 839.00
42.1768 935.00
42.242 852.00
42.3072 881.00
42.3724 861.00
42.4376 926.00
42.5028 818.00
42.568 896.00
42.6332 861.00
42.6983 898.00
42.7635 887.00
42.8287 841.00
42.8939 865.00
42.9591 854.00
43.0243 866.00
43.0895 882.00
43.1547 911.00
43.2199 866.00
43.2851 905.00
43.3503 899.00
43.4155 915.00
43.4807 862.00
43.5459 856.00
43.6111 902.00
43.6763 880.00
43.7415 894.00
43.8067 903.00
43.8719 844.00
43.9371 906.00
44.0023 898.00
44.0675 886.00
44.1327 887.00
44.1979 858.00
44.2631 853.00
44.3283 853.00
44.3935 864.00
44.4587 847.00
44.5239 888.00
44.5891 906.00
44.6543 802.00
44.7195 848.00
44.7847 874.00
44.8499 887.00
44.9151 842.00
44.9803 801.00
45.0455 808.00
45.1107 872.00
45.1759 921.00
45.2411 848.00
45.3063 860.00
45.3715 848.00
45.4367 903.00
45.5019 933.00
45.5671 942.00
45.6323 963.00
45.6975 930.00
45.7627 979.00
45.8279 1063.00
45.8931 1142.00
45.9583 1268.00
46.0235 1445.00
46.0887 1346.00
46.1539 1173.00
46.2191 996.00
46.2843 988.00
46.3495 1106.00
46.4147 1205.00
46.4799 1358.00
46.5451 1681.00
46.6103 2042.00
46.6755 2655.00
46.7407 2833.00
46.8059 2296.00
46.8711 1726.00
46.9363 1231.00
47.0015 892.00
47.0667 856.00
47.1319 872.00
47.1971 845.00
47.2623 786.00
47.3275 815.00
47.3927 825.00
47.4579 776.00
47.523 823.00
47.5882 851.00
47.6534 825.00
47.7186 865.00
47.7838 871.00
47.849 925.00
47.9142 958.00
47.9794 926.00
48.0446 937.00
48.1098 843.00
48.175 817.00
48.2402 743.00
48.3054 818.00
48.3706 805.00
48.4358 800.00
48.501 808.00
48.5662 818.00
48.6314 774.00
48.6966 753.00
48.7618 795.00
48.827 799.00
48.8922 771.00
48.9574 818.00
49.0226 951.00
49.0878 818.00
49.153 885.00
49.2182 785.00
49.2834 784.00
49.3486 746.00
49.4138 785.00
49.479 761.00
49.5442 757.00
49.6094 752.00
49.6746 775.00
49.7398 796.00
49.805 745.00
49.8702 745.00
49.9354 756.00
50.0006 762.00
50.0658 745.00
50.131 750.00
50.1962 773.00
50.2614 768.00
50.3266 764.00
50.3918 762.00
50.457 768.00
50.5222 722.00
50.5874 764.00
50.6526 734.00
50.7178 734.00
50.783 716.00
50.8482 789.00
50.9134 713.00
50.9786 704.00
51.0438 722.00
51.109 704.00
51.1742 722.00
51.2394 737.00
51.3046 716.00
51.3698 711.00
51.435 678.00
51.5002 734.00
51.5654 715.00
51.6306 743.00
51.6958 753.00
51.761 734.00
51.8262 672.00
51.8914 712.00
51.9566 685.00
52.0218 705.00
52.087 707.00
52.1522 696.00
52.2174 765.00
52.2826 730.00
52.3477 734.00
52.4129 713.00
52.4781 757.00
52.5433 769.00
52.6085 723.00
52.6737 730.00
52.7389 719.00
52.8041 723.00
52.8693 693.00
52.9345 721.00
52.9997 717.00
53.0649 685.00
53.1301 620.00
53.1953 694.00
53.2605 693.00
53.3257 696.00
53.3909 672.00
53.4561 698.00
53.5213 706.00
53.5865 700.00
53.6517 720.00
53.7169 664.00
53.7821 682.00
53.8473 740.00
53.9125 689.00
53.9777 695.00
54.0429 732.00
54.1081 720.00
54.1733 723.00
54.2385 781.00
54.3037 753.00
54.3689 692.00
54.4341 733.00
54.4993 642.00
54.5645 723.00
54.6297 622.00
54.6949 707.00
54.7601 689.00
54.8253 684.00
54.8905 662.00
54.9557 725.00
55.0209 759.00
55.0861 817.00
55.1513 803.00
55.2165 873.00
55.2817 931.00
55.3469 1036.00
55.4121 846.00
55.4773 833.00
55.5425 756.00
55.6077 703.00
55.6729 648.00
55.7381 665.00
55.8033 685.00
55.8685 701.00
55.9337 668.00
55.9989 697.00
56.0641 654.00
56.1293 689.00
56.1945 649.00
56.2597 698.00
56.3249 700.00
56.3901 665.00
56.4553 649.00
56.5205 642.00
56.5857 689.00
56.6509 636.00
56.7161 671.00
56.7813 630.00
56.8465 675.00
56.9117 665.00
56.9769 676.00
57.042 653.00
57.1073 651.00
57.1724 677.00
57.2376 701.00
57.3028 658.00
57.368 639.00
57.4332 634.00
57.4984 621.00
57.5636 637.00
57.6288 678.00
57.694 654.00
57.7592 684.00
57.8244 680.00
57.8896 668.00
57.9548 665.00
58.02 628.00
58.0852 663.00
58.1504 692.00
58.2156 688.00
58.2808 668.00
58.346 714.00
58.4112 784.00
58.4764 836.00
58.5416 1193.00
58.6068 1012.00
58.672 1116.00
58.7372 908.00
58.8024 864.00
58.8676 909.00
58.9328 891.00
58.998 957.00
59.0632 1036.00
59.1284 960.00
59.1936 856.00
59.2588 757.00
59.324 691.00
59.3892 618.00
59.4544 659.00
59.5196 669.00
59.5848 665.00
59.65 616.00
59.7152 700.00
59.7804 659.00
59.8456 712.00
59.9108 641.00
59.976 739.00
60.0412 738.00
60.1064 779.00
60.1716 658.00
60.2368 676.00
60.302 683.00
60.3672 670.00
60.4324 657.00
60.4976 640.00
60.5628 636.00
60.628 641.00
60.6932 672.00
60.7584 616.00
60.8236 675.00
60.8888 621.00
60.954 613.00
61.0192 637.00
61.0844 620.00
61.1496 636.00
61.2148 626.00
61.28 615.00
61.3452 689.00
61.4104 658.00
61.4756 654.00
61.5408 636.00
61.606 638.00
61.6712 677.00
61.7364 674.00
61.8016 689.00
61.8667 709.00
61.932 651.00
61.9971 671.00
62.0623 666.00
62.1275 656.00
62.1927 692.00
62.2579 641.00
62.3231 667.00
62.3883 721.00
62.4535 655.00
62.5187 631.00
62.5839 601.00
62.6491 650.00
62.7143 676.00
62.7795 601.00
62.8447 638.00
62.9099 645.00
62.9751 606.00
63.0403 595.00
63.1055 623.00
63.1707 656.00
63.2359 629.00
63.3011 621.00
63.3663 585.00
63.4315 651.00
63.4967 674.00
63.5619 666.00
63.6271 673.00
63.6923 684.00
63.7575 695.00
63.8227 704.00
63.8879 723.00
63.9531 763.00
64.0183 782.00
64.0835 888.00
64.1487 906.00
64.2139 963.00
64.2791 865.00
64.3443 738.00
64.4095 770.00
64.4747 693.00
64.5399 658.00
64.6051 724.00
64.6703 609.00
64.7355 636.00
64.8007 664.00
64.8659 617.00
64.9311 659.00
64.9963 617.00
65.0615 604.00
65.1267 622.00
65.1919 678.00
65.2571 653.00
65.3223 649.00
65.3875 623.00
65.4527 652.00
65.5179 652.00
65.5831 626.00
65.6483 618.00
65.7135 626.00
65.7787 656.00
65.8439 610.00
65.9091 634.00
65.9743 635.00
66.0395 633.00
66.1047 566.00
66.1699 598.00
66.2351 593.00
66.3003 629.00
66.3655 600.00
66.4307 620.00
66.4959 643.00
66.561 631.00
66.6263 662.00
66.6915 596.00
66.7566 611.00
66.8218 636.00
66.887 664.00
66.9522 646.00
67.0174 628.00
67.0826 611.00
67.1478 606.00
67.213 651.00
67.2782 617.00
67.3434 613.00
67.4086 589.00
67.4738 587.00
67.539 632.00
67.6042 622.00
67.6694 593.00
67.7346 586.00
67.7998 619.00
67.865 578.00
67.9302 612.00
67.9954 577.00
68.0606 587.00
68.1258 607.00
68.191 635.00
68.2562 610.00
68.3214 587.00
68.3866 609.00
68.4518 612.00
68.517 633.00
68.5822 597.00
68.6474 610.00
68.7126 605.00
68.7778 602.00
68.843 597.00
68.9082 571.00
68.9734 583.00
69.0386 588.00
69.1038 593.00
69.169 596.00
69.2342 568.00
69.2994 585.00
69.3646 609.00
69.4298 629.00
69.495 660.00
69.5602 642.00
69.6254 648.00
69.6906 639.00
69.7558 784.00
69.821 847.00
69.8862 848.00
69.9514 901.00
70.0166 783.00
70.0818 690.00
70.147 724.00
70.2122 624.00
70.2774 575.00
70.3426 583.00
70.4078 584.00
70.473 625.00
70.5382 556.00
70.6034 576.00
70.6686 593.00
70.7338 620.00
70.799 588.00
70.8642 576.00
70.9294 578.00
70.9946 567.00
71.0598 544.00
71.125 546.00
71.1902 566.00
71.2554 596.00
71.3205 561.00
71.3858 527.00
71.451 582.00
71.5162 561.00
71.5813 675.00
71.6465 612.00
71.7117 654.00
71.7769 660.00
71.8421 642.00
71.9073 580.00
71.9725 601.00
72.0377 573.00
72.1029 569.00
72.1681 568.00
72.2333 530.00
72.2985 584.00
72.3637 565.00
72.4289 585.00
72.4941 543.00
72.5593 556.00
72.6245 551.00
72.6897 571.00
72.7549 573.00
72.8201 557.00
72.8853 560.00
72.9505 555.00
73.0157 590.00
73.0809 526.00
73.1461 600.00
73.2113 555.00
73.2765 553.00
73.3417 595.00
73.4069 504.00
73.4721 546.00
73.5373 577.00
73.6025 572.00
73.6677 574.00
73.7329 577.00
73.7981 576.00
73.8633 543.00
73.9285 554.00
73.9937 590.00
74.0589 544.00
74.1241 554.00
74.1893 541.00
74.2545 608.00
74.3197 618.00
74.3849 630.00
74.4501 675.00
74.5153 719.00
74.5805 773.00
74.6457 810.00
74.7109 913.00
74.7761 730.00
74.8413 720.00
74.9065 704.00
74.9717 682.00
75.0369 550.00
75.1021 526.00
75.1673 560.00
75.2325 585.00
75.2977 539.00
75.3629 577.00
75.4281 578.00
75.4933 565.00
75.5585 566.00
75.6237 532.00
75.6889 527.00
75.7541 574.00
75.8193 590.00
75.8845 588.00
75.9497 521.00
76.0149 529.00
76.0801 577.00
76.1452 596.00
76.2104 520.00
76.2756 508.00
76.3409 577.00
76.406 530.00
76.4712 568.00
76.5364 595.00
76.6016 533.00
76.6668 590.00
76.732 586.00
76.7972 790.00
76.8624 615.00
76.9276 582.00
76.9928 673.00
77.058 620.00
77.1232 569.00
77.1884 575.00
77.2536 526.00
77.3188 533.00
77.384 518.00
77.4492 557.00
77.5144 548.00
77.5796 566.00
77.6448 588.00
77.71 529.00
77.7752 501.00
77.8404 533.00
77.9056 561.00
77.9708 543.00
78.036 560.00
78.1012 547.00
78.1664 555.00
78.2316 548.00
78.2968 561.00
78.362 509.00
78.4272 528.00
78.4924 509.00
78.5576 548.00
78.6228 589.00
78.688 583.00
78.7532 533.00
78.8184 514.00
78.8836 528.00
78.9488 589.00
79.014 532.00
79.0792 498.00
79.1444 525.00
79.2096 548.00
79.2748 558.00
79.34 566.00
79.4052 579.00
79.4704 623.00
79.5356 683.00
79.6008 681.00
79.666 685.00
79.7312 807.00
79.7964 685.00
79.8616 652.00
79.9268 742.00
79.992 731.00
80.0572 735.00
80.1224 710.00
80.1876 609.00
80.2528 620.00
80.318 590.00
80.3832 587.00
80.4484 529.00
80.5136 534.00
80.5788 498.00
80.644 523.00
80.7092 540.00
80.7744 501.00
80.8396 563.00
80.9048 542.00
80.9699 509.00
81.0351 505.00
81.1003 559.00
81.1655 482.00
81.2307 561.00
81.2959 534.00
81.3611 502.00
81.4263 490.00
81.4915 489.00
81.5567 517.00
81.6219 541.00
81.6871 556.00
81.7523 575.00
81.8175 603.00
81.8827 611.00
81.9479 620.00
82.0131 547.00
82.0783 519.00
82.1435 569.00
82.2087 501.00
82.2739 475.00
82.3391 512.00
82.4043 492.00
82.4695 503.00
82.5347 504.00
82.5999 481.00
82.6651 461.00
82.7303 470.00
82.7955 441.00
82.8607 480.00
82.9259 461.00
82.9911 486.00
83.0563 497.00
83.1215 462.00
83.1867 462.00
83.2519 478.00
83.3171 475.00
83.3823 443.00
83.4475 457.00
83.5127 420.00
83.5779 418.00
83.6431 462.00
83.7083 458.00
83.7735 485.00
83.8387 463.00
83.9039 458.00
83.9691 446.00
84.0343 455.00
84.0995 446.00
84.1647 410.00
84.2299 420.00
84.2951 427.00
84.3603 460.00
84.4255 456.00
84.4907 439.00
84.5559 440.00
84.6211 430.00
84.6863 424.00
84.7515 445.00
84.8167 417.00
84.8819 457.00
84.9471 429.00
85.0123 412.00
85.0775 415.00
85.1427 414.00
85.2079 423.00
85.2731 427.00
85.3383 421.00
85.4035 477.00
85.4687 452.00
85.5339 460.00
85.5991 462.00
85.6643 506.00
85.7295 472.00
85.7946 438.00
85.8598 433.00
85.925 424.00
85.9903 425.00
86.0554 403.00
86.1206 426.00
86.1858 375.00
86.251 404.00
86.3162 391.00
86.3814 413.00
86.4466 393.00
86.5118 380.00
86.577 388.00
86.6422 362.00
86.7074 440.00
86.7726 372.00
86.8378 381.00
86.903 376.00
86.9682 398.00
87.0334 372.00
87.0986 379.00
87.1638 410.00
87.229 382.00
87.2942 391.00
87.3594 402.00
87.4246 383.00
87.4898 346.00
87.555 375.00
87.6202 380.00
87.6854 431.00
87.7506 368.00
87.8158 380.00
87.881 383.00
87.9462 381.00
88.0114 365.00
88.0766 417.00
88.1418 358.00
88.207 379.00
88.2722 364.00
88.3374 391.00
88.4026 390.00
88.4678 334.00
88.533 387.00
88.5982 383.00
88.6634 379.00
88.7286 384.00
88.7938 336.00
88.859 355.00
88.9242 368.00
88.9894 359.00
89.0546 377.00
89.1198 379.00
89.185 396.00
89.2502 387.00
89.3154 408.00
89.3806 384.00
89.4458 368.00
89.511 347.00
89.5762 366.00
89.6414 384.00
89.7066 341.00
89.7718 383.00
89.837 366.00
89.9022 365.00
89.9674 351.00
90.0326 334.00
90.0978 346.00
90.163 318.00
90.2282 314.00
90.2934 391.00
90.3586 373.00
90.4238 350.00
90.489 344.00
90.5542 357.00
90.6193 385.00
90.6845 349.00
90.7497 318.00
90.8149 383.00
90.8801 344.00
90.9453 358.00
91.0105 362.00
91.0757 360.00
91.1409 333.00
91.2061 345.00
91.2713 356.00
91.3365 371.00
91.4017 320.00
91.4669 350.00
91.5321 348.00
91.5973 359.00
91.6625 332.00
91.7277 357.00
91.7929 352.00
91.8581 318.00
91.9233 394.00
91.9885 324.00
92.0537 347.00
92.1189 338.00
92.1841 323.00
92.2493 383.00
92.3145 371.00
92.3797 323.00
92.4449 355.00
92.5101 316.00
92.5753 324.00
92.6405 351.00
92.7057 351.00
92.7709 369.00
92.8361 322.00
92.9013 313.00
92.9665 376.00
93.0317 330.00
93.0969 358.00
93.1621 371.00
93.2273 318.00
93.2925 349.00
93.3577 328.00
93.4229 309.00
93.4881 328.00
93.5533 371.00
93.6185 346.00
93.6837 352.00
93.7489 351.00
93.8141 363.00
93.8793 359.00
93.9445 347.00
94.0097 388.00
94.0749 385.00
94.1401 344.00
94.2053 391.00
94.2705 372.00
94.3357 357.00
94.4009 360.00
94.4661 368.00
94.5313 369.00
94.5965 353.00
94.6617 372.00
94.7269 361.00
94.7921 355.00
94.8573 353.00
94.9225 376.00
94.9877 327.00
95.0529 378.00
95.1181 390.00
95.1833 337.00
95.2485 391.00
95.3137 434.00
95.3789 415.00
95.444 479.00
95.5092 423.00
95.5744 405.00
95.6396 387.00
95.7048 373.00
95.77 383.00
95.8352 391.00
95.9004 336.00
95.9656 305.00
96.0308 376.00
96.096 322.00
96.1612 305.00
96.2264 350.00
96.2916 338.00
96.3568 386.00
96.422 375.00
96.4872 424.00
96.5524 367.00
96.6176 374.00
96.6828 341.00
96.748 390.00
96.8132 362.00
96.8784 383.00
96.9436 370.00
97.0088 346.00
97.074 324.00
97.1392 358.00
97.2044 352.00
97.2696 344.00
97.3348 360.00
97.4 344.00
97.4652 312.00
97.5304 351.00
97.5956 344.00
97.6608 353.00
97.726 340.00
97.7912 335.00
97.8564 346.00
97.9216 340.00
97.9868 354.00
98.052 337.00
98.1172 336.00
98.1824 315.00
98.2476 328.00
98.3128 363.00
98.378 359.00
98.4432 343.00
98.5084 340.00
98.5736 364.00
98.6388 332.00
98.704 342.00
98.7692 373.00
98.8344 356.00
98.8996 362.00
98.9648 382.00
99.03 362.00
99.0952 347.00
99.1604 355.00
99.2256 383.00
99.2908 372.00
99.356 392.00
99.4212 399.00
99.4864 402.00
99.5516 437.00
99.6168 486.00
99.682 506.00
99.7472 479.00
99.8124 426.00
99.8776 379.00
99.9428 402.00
100.008 423.00
100.073 415.00
100.095 432.00