File: data/xrd_creation/results/PG_2551-1.xy
9.903433 2529.00
9.968632 2465.00
10.0338 2503.00
10.099 2342.00
10.1642 2426.00
10.2294 2401.00
10.2946 2416.00
10.3598 2343.00
10.425 2317.00
10.4902 2177.00
10.5554 2305.00
10.6206 2252.00
10.6858 2351.00
10.751 2221.00
10.8162 2197.00
10.8814 2168.00
10.9466 2141.00
11.0118 2188.00
11.077 2243.00
11.1422 2137.00
11.2074 2083.00
11.2726 2132.00
11.3378 2033.00
11.403 2084.00
11.4682 2102.00
11.5334 2005.00
11.5986 2066.00
11.6638 1923.00
11.729 1956.00
11.7942 1926.00
11.8594 1904.00
11.9246 1962.00
11.9898 1948.00
12.055 1891.00
12.1202 1865.00
12.1854 1887.00
12.2506 1843.00
12.3158 1813.00
12.381 1822.00
12.4462 1830.00
12.5114 1812.00
12.5766 1785.00
12.6418 1784.00
12.707 1734.00
12.7722 1750.00
12.8374 1785.00
12.9026 1711.00
12.9678 1734.00
13.033 1735.00
13.0982 1672.00
13.1634 1745.00
13.2286 1711.00
13.2938 1688.00
13.359 1643.00
13.4242 1719.00
13.4894 1646.00
13.5546 1533.00
13.6198 1679.00
13.685 1662.00
13.7502 1609.00
13.8154 1678.00
13.8805 1637.00
13.9457 1550.00
14.0109 1582.00
14.0761 1609.00
14.1413 1628.00
14.2065 1524.00
14.2717 1627.00
14.3369 1589.00
14.4021 1517.00
14.4673 1509.00
14.5325 1639.00
14.5977 1581.00
14.6629 1582.00
14.7281 1459.00
14.7933 1587.00
14.8585 1511.00
14.9237 1554.00
14.9889 1433.00
15.0541 1456.00
15.1193 1400.00
15.1845 1477.00
15.2497 1443.00
15.3149 1449.00
15.3801 1517.00
15.4453 1456.00
15.5105 1555.00
15.5757 1388.00
15.6409 1556.00
15.7061 1473.00
15.7713 1422.00
15.8365 1452.00
15.9017 1476.00
15.9669 1405.00
16.0321 1411.00
16.0973 1462.00
16.1625 1376.00
16.2277 1408.00
16.2929 1472.00
16.3581 1400.00
16.4233 1350.00
16.4885 1409.00
16.5537 1331.00
16.6189 1411.00
16.6841 1356.00
16.7493 1356.00
16.8145 1359.00
16.8797 1409.00
16.9449 1353.00
17.0101 1296.00
17.0753 1324.00
17.1405 1338.00
17.2057 1358.00
17.2709 1344.00
17.3361 1361.00
17.4013 1346.00
17.4665 1262.00
17.5317 1287.00
17.5969 1248.00
17.6621 1303.00
17.7273 1306.00
17.7925 1384.00
17.8577 1257.00
17.9229 1280.00
17.9881 1316.00
18.0533 1287.00
18.1185 1201.00
18.1837 1260.00
18.2489 1259.00
18.3141 1234.00
18.3793 1237.00
18.4445 1223.00
18.5097 1215.00
18.5749 1246.00
18.6401 1225.00
18.7052 1160.00
18.7704 1267.00
18.8356 1248.00
18.9008 1268.00
18.966 1174.00
19.0312 1150.00
19.0964 1198.00
19.1616 1223.00
19.2268 1265.00
19.292 1180.00
19.3572 1196.00
19.4224 1126.00
19.4876 1206.00
19.5528 1149.00
19.618 1120.00
19.6832 1126.00
19.7484 1212.00
19.8136 1084.00
19.8788 1194.00
19.944 1142.00
20.0092 1115.00
20.0744 1108.00
20.1396 1194.00
20.2048 1169.00
20.27 1168.00
20.3352 1124.00
20.4004 1104.00
20.4656 1147.00
20.5308 1070.00
20.596 1098.00
20.6612 1063.00
20.7264 1090.00
20.7916 1060.00
20.8568 1147.00
20.922 1056.00
20.9872 1050.00
21.0524 1021.00
21.1176 1073.00
21.1828 1019.00
21.248 1129.00
21.3132 1051.00
21.3784 1075.00
21.4436 1129.00
21.5088 1070.00
21.574 1059.00
21.6392 1002.00
21.7044 977.00
21.7696 1081.00
21.8348 1019.00
21.9 1040.00
21.9652 1071.00
22.0304 993.00
22.0956 1022.00
22.1608 968.00
22.226 964.00
22.2912 990.00
22.3564 974.00
22.4216 1019.00
22.4868 953.00
22.552 1040.00
22.6172 963.00
22.6824 979.00
22.7476 962.00
22.8128 925.00
22.878 930.00
22.9432 996.00
23.0084 893.00
23.0736 998.00
23.1388 948.00
23.204 990.00
23.2692 985.00
23.3344 952.00
23.3996 987.00
23.4647 993.00
23.5299 940.00
23.5951 898.00
23.6603 921.00
23.7255 932.00
23.7907 914.00
23.8559 879.00
23.9211 970.00
23.9863 917.00
24.0515 867.00
24.1167 879.00
24.1819 866.00
24.2471 970.00
24.3123 912.00
24.3775 884.00
24.4427 943.00
24.5079 876.00
24.5731 906.00
24.6383 899.00
24.7035 891.00
24.7687 888.00
24.8339 853.00
24.8991 837.00
24.9643 809.00
25.0295 871.00
25.0947 904.00
25.1599 876.00
25.2251 815.00
25.2903 820.00
25.3555 875.00
25.4207 820.00
25.4859 897.00
25.5511 830.00
25.6163 871.00
25.6815 892.00
25.7467 815.00
25.8119 825.00
25.8771 829.00
25.9423 871.00
26.0075 844.00
26.0727 851.00
26.1379 809.00
26.2031 812.00
26.2683 834.00
26.3335 869.00
26.3987 798.00
26.4639 884.00
26.5291 884.00
26.5943 802.00
26.6595 840.00
26.7247 803.00
26.7899 831.00
26.8551 846.00
26.9203 803.00
26.9855 783.00
27.0507 790.00
27.1159 773.00
27.1811 849.00
27.2463 730.00
27.3115 744.00
27.3767 742.00
27.4419 781.00
27.5071 780.00
27.5723 830.00
27.6375 714.00
27.7027 792.00
27.7679 753.00
27.8331 760.00
27.8983 781.00
27.9635 760.00
28.0287 790.00
28.0939 833.00
28.1591 798.00
28.2243 840.00
28.2894 777.00
28.3546 751.00
28.4198 748.00
28.485 773.00
28.5502 759.00
28.6154 754.00
28.6806 795.00
28.7458 738.00
28.811 755.00
28.8762 861.00
28.9414 808.00
29.0066 723.00
29.0718 729.00
29.137 719.00
29.2022 748.00
29.2674 730.00
29.3326 757.00
29.3978 714.00
29.463 702.00
29.5282 746.00
29.5934 708.00
29.6586 706.00
29.7238 768.00
29.789 747.00
29.8542 759.00
29.9194 771.00
29.9846 706.00
30.0498 743.00
30.115 718.00
30.1802 771.00
30.2454 677.00
30.3106 732.00
30.3758 771.00
30.441 717.00
30.5062 780.00
30.5714 723.00
30.6366 724.00
30.7018 784.00
30.767 719.00
30.8322 736.00
30.8974 816.00
30.9626 828.00
31.0278 813.00
31.093 870.00
31.1582 884.00
31.2234 921.00
31.2886 906.00
31.3538 933.00
31.419 1010.00
31.4842 1051.00
31.5494 1370.00
31.6146 1692.00
31.6798 2304.00
31.745 3637.00
31.8102 5860.00
31.8754 9509.00
31.9406 15131.00
32.0058 21771.00
32.071 20178.00
32.1362 10811.00
32.2014 3911.00
32.2666 1815.00
32.3318 1317.00
32.397 1090.00
32.4622 998.00
32.5274 877.00
32.5926 880.00
32.6578 894.00
32.723 895.00
32.7882 841.00
32.8534 813.00
32.9186 896.00
32.9838 840.00
33.0489 773.00
33.1141 774.00
33.1793 763.00
33.2445 775.00
33.3097 733.00
33.3749 734.00
33.4401 771.00
33.5053 777.00
33.5705 839.00
33.6357 812.00
33.7009 836.00
33.7661 719.00
33.8313 822.00
33.8965 785.00
33.9617 803.00
34.0269 866.00
34.0921 874.00
34.1573 925.00
34.2225 952.00
34.2877 1075.00
34.3529 1279.00
34.4181 1683.00
34.4833 2548.00
34.5485 3859.00
34.6137 6503.00
34.6789 10656.00
34.7441 15040.00
34.8093 14055.00
34.8745 8981.00
34.9397 4180.00
35.0049 1896.00
35.0701 1263.00
35.1353 1054.00
35.2005 1056.00
35.2657 992.00
35.3309 981.00
35.3961 917.00
35.4613 917.00
35.5265 966.00
35.5917 1024.00
35.6569 903.00
35.7221 972.00
35.7873 1037.00
35.8525 1120.00
35.9177 1202.00
35.9829 1328.00
36.0481 1636.00
36.1133 2145.00
36.1785 3115.00
36.2437 5071.00
36.3089 8539.00
36.3741 14788.00
36.4393 24355.00
36.5045 35869.00
36.5697 33394.00
36.6349 19457.00
36.7001 8154.00
36.7653 3409.00
36.8305 2773.00
36.8957 2691.00
36.9609 3396.00
37.0261 3998.00
37.0913 4379.00
37.1565 3708.00
37.2217 2554.00
37.2869 1652.00
37.3521 1166.00
37.4173 971.00
37.4825 877.00
37.5477 812.00
37.6129 802.00
37.6781 831.00
37.7433 770.00
37.8085 785.00
37.8736 770.00
37.9388 747.00
38.004 748.00
38.0692 705.00
38.1344 699.00
38.1996 702.00
38.2648 712.00
38.33 685.00
38.3952 713.00
38.4604 683.00
38.5256 738.00
38.5908 737.00
38.656 688.00
38.7212 719.00
38.7864 704.00
38.8516 718.00
38.9168 672.00
38.982 639.00
39.0472 654.00
39.1124 631.00
39.1776 686.00
39.2428 630.00
39.308 655.00
39.3732 645.00
39.4384 671.00
39.5036 672.00
39.5688 641.00
39.634 683.00
39.6992 642.00
39.7644 668.00
39.8296 667.00
39.8948 592.00
39.96 646.00
40.0252 620.00
40.0904 628.00
40.1556 612.00
40.2208 603.00
40.286 654.00
40.3512 626.00
40.4164 638.00
40.4816 631.00
40.5468 620.00
40.612 621.00
40.6772 568.00
40.7424 589.00
40.8076 571.00
40.8728 610.00
40.938 631.00
41.0032 595.00
41.0684 577.00
41.1336 570.00
41.1988 577.00
41.264 578.00
41.3292 607.00
41.3944 582.00
41.4596 617.00
41.5248 651.00
41.59 576.00
41.6552 610.00
41.7204 643.00
41.7856 658.00
41.8508 619.00
41.916 618.00
41.9812 696.00
42.0464 695.00
42.1116 640.00
42.1768 669.00
42.242 687.00
42.3072 752.00
42.3724 782.00
42.4376 873.00
42.5028 952.00
42.568 1125.00
42.6332 1408.00
42.6983 2106.00
42.7635 3296.00
42.8287 5215.00
42.8939 8568.00
42.9591 12829.00
43.0243 15768.00
43.0895 16218.00
43.1547 14122.00
43.2199 9392.00
43.2851 5134.00
43.3503 2389.00
43.4155 1285.00
43.4807 983.00
43.5459 792.00
43.6111 753.00
43.6763 657.00
43.7415 647.00
43.8067 674.00
43.8719 604.00
43.9371 630.00
44.0023 604.00
44.0675 633.00
44.1327 580.00
44.1979 568.00
44.2631 593.00
44.3283 576.00
44.3935 611.00
44.4587 518.00
44.5239 592.00
44.5891 534.00
44.6543 581.00
44.7195 522.00
44.7847 525.00
44.8499 497.00
44.9151 583.00
44.9803 519.00
45.0455 544.00
45.1107 513.00
45.1759 566.00
45.2411 548.00
45.3063 568.00
45.3715 554.00
45.4367 555.00
45.5019 528.00
45.5671 533.00
45.6323 530.00
45.6975 489.00
45.7627 489.00
45.8279 514.00
45.8931 517.00
45.9583 559.00
46.0235 498.00
46.0887 534.00
46.1539 563.00
46.2191 511.00
46.2843 534.00
46.3495 527.00
46.4147 518.00
46.4799 585.00
46.5451 499.00
46.6103 551.00
46.6755 552.00
46.7407 553.00
46.8059 578.00
46.8711 569.00
46.9363 557.00
47.0015 597.00
47.0667 530.00
47.1319 582.00
47.1971 582.00
47.2623 606.00
47.3275 678.00
47.3927 729.00
47.4579 884.00
47.523 1142.00
47.5882 1779.00
47.6534 2744.00
47.7186 4678.00
47.7838 7282.00
47.849 8581.00
47.9142 6728.00
47.9794 4636.00
48.0446 2386.00
48.1098 1288.00
48.175 849.00
48.2402 703.00
48.3054 619.00
48.3706 561.00
48.4358 561.00
48.501 549.00
48.5662 536.00
48.6314 504.00
48.6966 503.00
48.7618 492.00
48.827 494.00
48.8922 462.00
48.9574 476.00
49.0226 475.00
49.0878 467.00
49.153 467.00
49.2182 488.00
49.2834 491.00
49.3486 496.00
49.4138 485.00
49.479 457.00
49.5442 475.00
49.6094 423.00
49.6746 472.00
49.7398 480.00
49.805 461.00
49.8702 486.00
49.9354 447.00
50.0006 479.00
50.0658 433.00
50.131 426.00
50.1962 464.00
50.2614 479.00
50.3266 461.00
50.3918 465.00
50.457 469.00
50.5222 463.00
50.5874 475.00
50.6526 448.00
50.7178 464.00
50.783 497.00
50.8482 458.00
50.9134 484.00
50.9786 503.00
51.0438 485.00
51.109 457.00
51.1742 431.00
51.2394 453.00
51.3046 434.00
51.3698 431.00
51.435 444.00
51.5002 440.00
51.5654 470.00
51.6306 422.00
51.6958 467.00
51.761 440.00
51.8262 430.00
51.8914 435.00
51.9566 453.00
52.0218 419.00
52.087 424.00
52.1522 449.00
52.2174 469.00
52.2826 435.00
52.3477 413.00
52.4129 412.00
52.4781 442.00
52.5433 423.00
52.6085 410.00
52.6737 428.00
52.7389 415.00
52.8041 418.00
52.8693 407.00
52.9345 456.00
52.9997 427.00
53.0649 426.00
53.1301 423.00
53.1953 421.00
53.2605 457.00
53.3257 426.00
53.3909 442.00
53.4561 436.00
53.5213 448.00
53.5865 446.00
53.6517 377.00
53.7169 458.00
53.7821 410.00
53.8473 405.00
53.9125 423.00
53.9777 397.00
54.0429 400.00
54.1081 427.00
54.1733 391.00
54.2385 446.00
54.3037 413.00
54.3689 404.00
54.4341 444.00
54.4993 458.00
54.5645 426.00
54.6297 458.00
54.6949 458.00
54.7601 447.00
54.8253 495.00
54.8905 453.00
54.9557 457.00
55.0209 484.00
55.0861 474.00
55.1513 466.00
55.2165 452.00
55.2817 462.00
55.3469 496.00
55.4121 461.00
55.4773 443.00
55.5425 501.00
55.6077 492.00
55.6729 496.00
55.7381 515.00
55.8033 498.00
55.8685 510.00
55.9337 505.00
55.9989 502.00
56.0641 500.00
56.1293 549.00
56.1945 611.00
56.2597 680.00
56.3249 796.00
56.3901 917.00
56.4553 1331.00
56.5205 2039.00
56.5857 3202.00
56.6509 5280.00
56.7161 8530.00
56.7813 11902.00
56.8465 11322.00
56.9117 7693.00
56.9769 6011.00
57.042 3146.00
57.1073 1420.00
57.1724 904.00
57.2376 864.00
57.3028 683.00
57.368 633.00
57.4332 524.00
57.4984 544.00
57.5636 521.00
57.6288 516.00
57.694 475.00
57.7592 472.00
57.8244 470.00
57.8896 488.00
57.9548 464.00
58.02 496.00
58.0852 451.00
58.1504 435.00
58.2156 464.00
58.2808 460.00
58.346 480.00
58.4112 458.00
58.4764 449.00
58.5416 429.00
58.6068 441.00
58.672 445.00
58.7372 467.00
58.8024 432.00
58.8676 466.00
58.9328 405.00
58.998 505.00
59.0632 437.00
59.1284 405.00
59.1936 441.00
59.2588 438.00
59.324 444.00
59.3892 399.00
59.4544 434.00
59.5196 428.00
59.5848 438.00
59.65 452.00
59.7152 435.00
59.7804 454.00
59.8456 439.00
59.9108 499.00
59.976 475.00
60.0412 425.00
60.1064 449.00
60.1716 500.00
60.2368 460.00
60.302 461.00
60.3672 468.00
60.4324 424.00
60.4976 493.00
60.5628 473.00
60.628 523.00
60.6932 488.00
60.7584 511.00
60.8236 515.00
60.8888 521.00
60.954 514.00
61.0192 587.00
61.0844 555.00
61.1496 534.00
61.2148 521.00
61.28 506.00
61.3452 505.00
61.4104 518.00
61.4756 508.00
61.5408 563.00
61.606 533.00
61.6712 630.00
61.7364 701.00
61.8016 729.00
61.8667 893.00
61.932 1111.00
61.9971 1549.00
62.0623 2314.00
62.1275 3366.00
62.1927 4838.00
62.2579 6143.00
62.3231 6691.00
62.3883 6940.00
62.4535 6888.00
62.5187 5818.00
62.5839 4333.00
62.6491 3176.00
62.7143 2375.00
62.7795 1556.00
62.8447 1552.00
62.9099 2182.00
62.9751 3206.00
63.0403 5200.00
63.1055 7771.00
63.1707 9651.00
63.2359 8460.00
63.3011 6660.00
63.3663 5367.00
63.4315 3501.00
63.4967 1964.00
63.5619 1250.00
63.6271 892.00
63.6923 751.00
63.7575 642.00
63.8227 554.00
63.8879 544.00
63.9531 518.00
64.0183 500.00
64.0835 506.00
64.1487 516.00
64.2139 464.00
64.2791 521.00
64.3443 459.00
64.4095 456.00
64.4747 471.00
64.5399 467.00
64.6051 478.00
64.6703 476.00
64.7355 441.00
64.8007 474.00
64.8659 463.00
64.9311 482.00
64.9963 519.00
65.0615 503.00
65.1267 497.00
65.1919 470.00
65.2571 437.00
65.3223 426.00
65.3875 454.00
65.4527 483.00
65.5179 455.00
65.5831 508.00
65.6483 471.00
65.7135 495.00
65.7787 499.00
65.8439 516.00
65.9091 518.00
65.9743 551.00
66.0395 509.00
66.1047 496.00
66.1699 583.00
66.2351 632.00
66.3003 733.00
66.3655 953.00
66.4307 1286.00
66.4959 1697.00
66.561 2006.00
66.6263 1642.00
66.6915 1414.00
66.7566 1239.00
66.8218 888.00
66.887 630.00
66.9522 567.00
67.0174 515.00
67.0826 491.00
67.1478 520.00
67.213 484.00
67.2782 475.00
67.3434 534.00
67.4086 548.00
67.4738 508.00
67.539 539.00
67.6042 611.00
67.6694 655.00
67.7346 735.00
67.7998 942.00
67.865 1280.00
67.9302 1980.00
67.9954 2920.00
68.0606 4844.00
68.1258 7154.00
68.191 8480.00
68.2562 6506.00
68.3214 5233.00
68.3866 4575.00
68.4518 2875.00
68.517 1558.00
68.5822 1052.00
68.6474 799.00
68.7126 707.00
68.7778 694.00
68.843 727.00
68.9082 825.00
68.9734 946.00
69.0386 1282.00
69.1038 1956.00
69.169 2704.00
69.2342 4037.00
69.2994 4250.00
69.3646 3205.00
69.4298 2590.00
69.495 2345.00
69.5602 1405.00
69.6254 934.00
69.6906 698.00
69.7558 556.00
69.821 512.00
69.8862 516.00
69.9514 501.00
70.0166 480.00
70.0818 482.00
70.147 428.00
70.2122 441.00
70.2774 430.00
70.3426 436.00
70.4078 439.00
70.473 448.00
70.5382 426.00
70.6034 427.00
70.6686 387.00
70.7338 382.00
70.799 417.00
70.8642 461.00
70.9294 414.00
70.9946 424.00
71.0598 403.00
71.125 425.00
71.1902 427.00
71.2554 398.00
71.3205 408.00
71.3858 423.00
71.451 395.00
71.5162 423.00
71.5813 398.00
71.6465 425.00
71.7117 393.00
71.7769 403.00
71.8421 423.00
71.9073 382.00
71.9725 369.00
72.0377 442.00
72.1029 393.00
72.1681 408.00
72.2333 403.00
72.2985 377.00
72.3637 389.00
72.4289 435.00
72.4941 395.00
72.5593 460.00
72.6245 490.00
72.6897 492.00
72.7549 606.00
72.8201 733.00
72.8853 807.00
72.9505 918.00
73.0157 845.00
73.0809 737.00
73.1461 701.00
73.2113 607.00
73.2765 512.00
73.3417 503.00
73.4069 415.00
73.4721 406.00
73.5373 450.00
73.6025 400.00
73.6677 388.00
73.7329 410.00
73.7981 420.00
73.8633 397.00
73.9285 365.00
73.9937 446.00
74.0589 459.00
74.1241 484.00
74.1893 468.00
74.2545 582.00
74.3197 753.00
74.3849 889.00
74.4501 1125.00
74.5153 1316.00
74.5805 1431.00
74.6457 1390.00
74.7109 1418.00
74.7761 1495.00
74.8413 1249.00
74.9065 1044.00
74.9717 859.00
75.0369 733.00
75.1021 617.00
75.1673 489.00
75.2325 414.00
75.2977 437.00
75.3629 414.00
75.4281 385.00
75.4933 391.00
75.5585 378.00
75.6237 399.00
75.6889 377.00
75.7541 366.00
75.8193 369.00
75.8845 382.00
75.9497 365.00
76.0149 392.00
76.0801 370.00
76.1452 367.00
76.2104 367.00
76.2756 393.00
76.3409 391.00
76.406 402.00
76.4712 390.00
76.5364 355.00
76.6016 387.00
76.6668 404.00
76.732 417.00
76.7972 462.00
76.8624 498.00
76.9276 623.00
76.9928 839.00
77.058 1114.00
77.1232 1404.00
77.1884 1565.00
77.2536 1205.00
77.3188 1089.00
77.384 1042.00
77.4492 833.00
77.5144 631.00
77.5796 511.00
77.6448 438.00
77.71 417.00
77.7752 422.00
77.8404 392.00
77.9056 428.00
77.9708 427.00
78.036 440.00
78.1012 518.00
78.1664 611.00
78.2316 798.00
78.2968 957.00
78.362 1294.00
78.4272 1512.00
78.4924 1575.00
78.5576 1721.00
78.6228 1771.00
78.688 1877.00
78.7532 1861.00
78.8184 1571.00
78.8836 1245.00
78.9488 997.00
79.014 893.00
79.0792 662.00
79.1444 516.00
79.2096 423.00
79.2748 409.00
79.34 432.00
79.4052 358.00
79.4704 336.00
79.5356 333.00
79.6008 379.00
79.666 372.00
79.7312 346.00
79.7964 337.00
79.8616 312.00
79.9268 389.00
79.992 379.00
80.0572 350.00
80.1224 319.00
80.1876 352.00
80.2528 350.00
80.318 358.00
80.3832 357.00
80.4484 330.00
80.5136 358.00
80.5788 333.00
80.644 355.00
80.7092 325.00
80.7744 370.00
80.8396 359.00
80.9048 353.00
80.9699 361.00
81.0351 343.00
81.1003 324.00
81.1655 323.00
81.2307 409.00
81.2959 363.00
81.3611 406.00
81.4263 413.00
81.4915 486.00
81.5567 556.00
81.6219 739.00
81.6871 847.00
81.7523 841.00
81.8175 751.00
81.8827 668.00
81.9479 619.00
82.0131 602.00
82.0783 543.00
82.1435 436.00
82.2087 399.00
82.2739 360.00
82.3391 325.00
82.4043 357.00
82.4695 321.00
82.5347 361.00
82.5999 339.00
82.6651 323.00
82.7303 369.00
82.7955 339.00
82.8607 337.00
82.9259 386.00
82.9911 328.00
83.0563 336.00
83.1215 345.00
83.1867 358.00
83.2519 355.00
83.3171 312.00
83.3823 341.00
83.4475 311.00
83.5127 319.00
83.5779 365.00
83.6431 322.00
83.7083 356.00
83.7735 347.00
83.8387 343.00
83.9039 308.00
83.9691 316.00
84.0343 328.00
84.0995 376.00
84.1647 367.00
84.2299 306.00
84.2951 284.00
84.3603 362.00
84.4255 346.00
84.4907 360.00
84.5559 326.00
84.6211 355.00
84.6863 333.00
84.7515 348.00
84.8167 332.00
84.8819 329.00
84.9471 359.00
85.0123 333.00
85.0775 328.00
85.1427 340.00
85.2079 333.00
85.2731 324.00
85.3383 361.00
85.4035 332.00
85.4687 313.00
85.5339 360.00
85.5991 332.00
85.6643 347.00
85.7295 339.00
85.7946 347.00
85.8598 353.00
85.925 367.00
85.9903 332.00
86.0554 346.00
86.1206 344.00
86.1858 325.00
86.251 337.00
86.3162 339.00
86.3814 341.00
86.4466 350.00
86.5118 334.00
86.577 351.00
86.6422 349.00
86.7074 325.00
86.7726 308.00
86.8378 295.00
86.903 370.00
86.9682 330.00
87.0334 355.00
87.0986 326.00
87.1638 316.00
87.229 354.00
87.2942 322.00
87.3594 322.00
87.4246 329.00
87.4898 345.00
87.555 337.00
87.6202 322.00
87.6854 370.00
87.7506 334.00
87.8158 330.00
87.881 356.00
87.9462 336.00
88.0114 356.00
88.0766 386.00
88.1418 353.00
88.207 340.00
88.2722 367.00
88.3374 342.00
88.4026 352.00
88.4678 338.00
88.533 362.00
88.5982 339.00
88.6634 317.00
88.7286 384.00
88.7938 373.00
88.859 341.00
88.9242 343.00
88.9894 392.00
89.0546 361.00
89.1198 371.00
89.185 359.00
89.2502 425.00
89.3154 454.00
89.3806 456.00
89.4458 547.00
89.511 604.00
89.5762 757.00
89.6414 1098.00
89.7066 1637.00
89.7718 2189.00
89.837 2567.00
89.9022 2250.00
89.9674 1772.00
90.0326 1639.00
90.0978 1698.00
90.163 1442.00
90.2282 1028.00
90.2934 689.00
90.3586 616.00
90.4238 495.00
90.489 484.00
90.5542 400.00
90.6193 404.00
90.6845 397.00
90.7497 358.00
90.8149 380.00
90.8801 376.00
90.9453 347.00
91.0105 373.00
91.0757 330.00
91.1409 372.00
91.2061 386.00
91.2713 399.00
91.3365 396.00
91.4017 347.00
91.4669 320.00
91.5321 386.00
91.5973 332.00
91.6625 377.00
91.7277 349.00
91.7929 372.00
91.8581 346.00
91.9233 345.00
91.9885 349.00
92.0537 361.00
92.1189 321.00
92.1841 351.00
92.2493 370.00
92.3145 420.00
92.3797 415.00
92.4449 419.00
92.5101 449.00
92.5753 449.00
92.6405 554.00
92.7057 668.00
92.7709 887.00
92.8361 1074.00
92.9013 1098.00
92.9665 1025.00
93.0317 829.00
93.0969 772.00
93.1621 865.00
93.2273 785.00
93.2925 640.00
93.3577 565.00
93.4229 596.00
93.4881 579.00
93.5533 653.00
93.6185 776.00
93.6837 758.00
93.7489 777.00
93.8141 816.00
93.8793 865.00
93.9445 816.00
94.0097 912.00
94.0749 875.00
94.1401 886.00
94.2053 779.00
94.2705 715.00
94.3357 669.00
94.4009 585.00
94.4661 538.00
94.5313 523.00
94.5965 461.00
94.6617 470.00
94.7269 479.00
94.7921 471.00
94.8573 460.00
94.9225 503.00
94.9877 543.00
95.0529 607.00
95.1181 794.00
95.1833 946.00
95.2485 1440.00
95.3137 2029.00
95.3789 2572.00
95.444 2626.00
95.5092 2002.00
95.5744 1693.00
95.6396 1549.00
95.7048 1655.00
95.77 1430.00
95.8352 1048.00
95.9004 715.00
95.9656 563.00
96.0308 498.00
96.096 419.00
96.1612 384.00
96.2264 420.00
96.2916 439.00
96.3568 368.00
96.422 382.00
96.4872 388.00
96.5524 364.00
96.6176 373.00
96.6828 351.00
96.748 371.00
96.8132 379.00
96.8784 403.00
96.9436 372.00
97.0088 375.00
97.074 330.00
97.1392 418.00
97.2044 382.00
97.2696 341.00
97.3348 338.00
97.4 378.00
97.4652 420.00
97.5304 396.00
97.5956 361.00
97.6608 373.00
97.726 393.00
97.7912 371.00
97.8564 336.00
97.9216 382.00
97.9868 343.00
98.052 346.00
98.1172 387.00
98.1824 354.00
98.2476 392.00
98.3128 439.00
98.378 411.00
98.4432 427.00
98.5084 457.00
98.5736 506.00
98.6388 608.00
98.704 793.00
98.7692 1086.00
98.8344 1343.00
98.8996 1373.00
98.9648 1361.00
99.03 1070.00
99.0952 968.00
99.1604 1031.00
99.2256 1038.00
99.2908 877.00
99.356 732.00
99.4212 546.00
99.4864 499.00
99.5516 467.00
99.6168 418.00
99.682 410.00
99.7472 428.00
99.8124 370.00
99.8776 391.00
99.9428 373.00
100.008 386.00
100.073 352.00
100.095 370.00