File: data/xrd_creation/results/PG_2244-1.xy
9.903433 2508.00
9.968632 2435.00
10.0338 2543.00
10.099 2432.00
10.1642 2349.00
10.2294 2402.00
10.2946 2365.00
10.3598 2378.00
10.425 2378.00
10.4902 2353.00
10.5554 2270.00
10.6206 2289.00
10.6858 2228.00
10.751 2268.00
10.8162 2247.00
10.8814 2280.00
10.9466 2200.00
11.0118 2210.00
11.077 2200.00
11.1422 2205.00
11.2074 2229.00
11.2726 2150.00
11.3378 2167.00
11.403 2073.00
11.4682 2072.00
11.5334 2162.00
11.5986 1988.00
11.6638 2008.00
11.729 1908.00
11.7942 1961.00
11.8594 1968.00
11.9246 1971.00
11.9898 1979.00
12.055 1973.00
12.1202 1846.00
12.1854 1901.00
12.2506 1898.00
12.3158 1955.00
12.381 1892.00
12.4462 1806.00
12.5114 1885.00
12.5766 1914.00
12.6418 1737.00
12.707 1905.00
12.7722 1725.00
12.8374 1762.00
12.9026 1782.00
12.9678 1743.00
13.033 1760.00
13.0982 1653.00
13.1634 1749.00
13.2286 1666.00
13.2938 1613.00
13.359 1709.00
13.4242 1602.00
13.4894 1654.00
13.5546 1620.00
13.6198 1655.00
13.685 1713.00
13.7502 1598.00
13.8154 1595.00
13.8805 1603.00
13.9457 1614.00
14.0109 1610.00
14.0761 1640.00
14.1413 1566.00
14.2065 1473.00
14.2717 1564.00
14.3369 1709.00
14.4021 1549.00
14.4673 1614.00
14.5325 1523.00
14.5977 1570.00
14.6629 1508.00
14.7281 1572.00
14.7933 1518.00
14.8585 1673.00
14.9237 1521.00
14.9889 1523.00
15.0541 1523.00
15.1193 1554.00
15.1845 1508.00
15.2497 1550.00
15.3149 1609.00
15.3801 1563.00
15.4453 1459.00
15.5105 1483.00
15.5757 1474.00
15.6409 1464.00
15.7061 1504.00
15.7713 1537.00
15.8365 1497.00
15.9017 1528.00
15.9669 1521.00
16.0321 1458.00
16.0973 1392.00
16.1625 1400.00
16.2277 1473.00
16.2929 1403.00
16.3581 1487.00
16.4233 1461.00
16.4885 1442.00
16.5537 1465.00
16.6189 1462.00
16.6841 1367.00
16.7493 1388.00
16.8145 1369.00
16.8797 1374.00
16.9449 1420.00
17.0101 1347.00
17.0753 1361.00
17.1405 1315.00
17.2057 1372.00
17.2709 1331.00
17.3361 1408.00
17.4013 1329.00
17.4665 1271.00
17.5317 1367.00
17.5969 1356.00
17.6621 1322.00
17.7273 1347.00
17.7925 1360.00
17.8577 1339.00
17.9229 1307.00
17.9881 1310.00
18.0533 1326.00
18.1185 1272.00
18.1837 1303.00
18.2489 1322.00
18.3141 1309.00
18.3793 1270.00
18.4445 1323.00
18.5097 1306.00
18.5749 1260.00
18.6401 1238.00
18.7052 1244.00
18.7704 1272.00
18.8356 1311.00
18.9008 1280.00
18.966 1256.00
19.0312 1259.00
19.0964 1210.00
19.1616 1306.00
19.2268 1236.00
19.292 1207.00
19.3572 1245.00
19.4224 1246.00
19.4876 1195.00
19.5528 1266.00
19.618 1195.00
19.6832 1206.00
19.7484 1241.00
19.8136 1267.00
19.8788 1176.00
19.944 1180.00
20.0092 1159.00
20.0744 1159.00
20.1396 1098.00
20.2048 1097.00
20.27 1137.00
20.3352 1117.00
20.4004 1171.00
20.4656 1100.00
20.5308 1138.00
20.596 1123.00
20.6612 1117.00
20.7264 1112.00
20.7916 1086.00
20.8568 1164.00
20.922 1136.00
20.9872 1177.00
21.0524 1139.00
21.1176 1078.00
21.1828 1088.00
21.248 1127.00
21.3132 1124.00
21.3784 1097.00
21.4436 1094.00
21.5088 1172.00
21.574 1082.00
21.6392 1145.00
21.7044 1222.00
21.7696 1312.00
21.8348 1488.00
21.9 1415.00
21.9652 1270.00
22.0304 1187.00
22.0956 1088.00
22.1608 1042.00
22.226 1065.00
22.2912 1075.00
22.3564 1045.00
22.4216 1055.00
22.4868 1041.00
22.552 1038.00
22.6172 1059.00
22.6824 1026.00
22.7476 1039.00
22.8128 1068.00
22.878 1039.00
22.9432 1064.00
23.0084 1042.00
23.0736 993.00
23.1388 1015.00
23.204 1010.00
23.2692 1073.00
23.3344 1054.00
23.3996 1078.00
23.4647 989.00
23.5299 1011.00
23.5951 1025.00
23.6603 1000.00
23.7255 988.00
23.7907 1029.00
23.8559 1021.00
23.9211 1014.00
23.9863 1090.00
24.0515 1005.00
24.1167 982.00
24.1819 1018.00
24.2471 996.00
24.3123 997.00
24.3775 1035.00
24.4427 972.00
24.5079 1059.00
24.5731 950.00
24.6383 957.00
24.7035 998.00
24.7687 980.00
24.8339 976.00
24.8991 989.00
24.9643 987.00
25.0295 943.00
25.0947 981.00
25.1599 897.00
25.2251 923.00
25.2903 958.00
25.3555 945.00
25.4207 940.00
25.4859 955.00
25.5511 978.00
25.6163 965.00
25.6815 972.00
25.7467 974.00
25.8119 937.00
25.8771 926.00
25.9423 976.00
26.0075 973.00
26.0727 1055.00
26.1379 1068.00
26.2031 1154.00
26.2683 1143.00
26.3335 1186.00
26.3987 1277.00
26.4639 1328.00
26.5291 1397.00
26.5943 1567.00
26.6595 1771.00
26.7247 2041.00
26.7899 2670.00
26.8551 4159.00
26.9203 6835.00
26.9855 11256.00
27.0507 17372.00
27.1159 19173.00
27.1811 14598.00
27.2463 8422.00
27.3115 4460.00
27.3767 2808.00
27.4419 2138.00
27.5071 1691.00
27.5723 1494.00
27.6375 1289.00
27.7027 1217.00
27.7679 1164.00
27.8331 1081.00
27.8983 1061.00
27.9635 1048.00
28.0287 1019.00
28.0939 1004.00
28.1591 994.00
28.2243 974.00
28.2894 925.00
28.3546 999.00
28.4198 927.00
28.485 872.00
28.5502 917.00
28.6154 919.00
28.6806 926.00
28.7458 896.00
28.811 891.00
28.8762 857.00
28.9414 902.00
29.0066 905.00
29.0718 887.00
29.137 804.00
29.2022 854.00
29.2674 883.00
29.3326 834.00
29.3978 868.00
29.463 841.00
29.5282 864.00
29.5934 850.00
29.6586 862.00
29.7238 886.00
29.789 898.00
29.8542 902.00
29.9194 907.00
29.9846 923.00
30.0498 839.00
30.115 883.00
30.1802 816.00
30.2454 818.00
30.3106 819.00
30.3758 799.00
30.441 775.00
30.5062 781.00
30.5714 781.00
30.6366 785.00
30.7018 799.00
30.767 820.00
30.8322 814.00
30.8974 848.00
30.9626 876.00
31.0278 1055.00
31.093 1224.00
31.1582 1178.00
31.2234 987.00
31.2886 871.00
31.3538 768.00
31.419 764.00
31.4842 782.00
31.5494 776.00
31.6146 773.00
31.6798 821.00
31.745 746.00
31.8102 752.00
31.8754 717.00
31.9406 754.00
32.0058 715.00
32.071 869.00
32.1362 974.00
32.2014 1136.00
32.2666 1441.00
32.3318 1345.00
32.397 1228.00
32.4622 903.00
32.5274 841.00
32.5926 828.00
32.6578 773.00
32.723 757.00
32.7882 692.00
32.8534 802.00
32.9186 737.00
32.9838 749.00
33.0489 742.00
33.1141 753.00
33.1793 823.00
33.2445 834.00
33.3097 856.00
33.3749 935.00
33.4401 891.00
33.5053 857.00
33.5705 907.00
33.6357 960.00
33.7009 1030.00
33.7661 1097.00
33.8313 1135.00
33.8965 1338.00
33.9617 1543.00
34.0269 1880.00
34.0921 2529.00
34.1573 3917.00
34.2225 6440.00
34.2877 11600.00
34.3529 16631.00
34.4181 16807.00
34.4833 11858.00
34.5485 6831.00
34.6137 3830.00
34.6789 2597.00
34.7441 1859.00
34.8093 1463.00
34.8745 1159.00
34.9397 1081.00
35.0049 986.00
35.0701 924.00
35.1353 888.00
35.2005 809.00
35.2657 835.00
35.3309 834.00
35.3961 776.00
35.4613 784.00
35.5265 792.00
35.5917 763.00
35.6569 693.00
35.7221 672.00
35.7873 776.00
35.8525 731.00
35.9177 695.00
35.9829 680.00
36.0481 710.00
36.1133 712.00
36.1785 691.00
36.2437 678.00
36.3089 700.00
36.3741 658.00
36.4393 755.00
36.5045 767.00
36.5697 845.00
36.6349 818.00
36.7001 766.00
36.7653 715.00
36.8305 649.00
36.8957 656.00
36.9609 652.00
37.0261 664.00
37.0913 657.00
37.1565 701.00
37.2217 718.00
37.2869 738.00
37.3521 818.00
37.4173 877.00
37.4825 896.00
37.5477 836.00
37.6129 778.00
37.6781 750.00
37.7433 706.00
37.8085 738.00
37.8736 734.00
37.9388 796.00
38.004 820.00
38.0692 911.00
38.1344 1032.00
38.1996 1308.00
38.2648 1841.00
38.33 2851.00
38.3952 4470.00
38.4604 5588.00
38.5256 4677.00
38.5908 3131.00
38.656 1892.00
38.7212 1203.00
38.7864 1030.00
38.8516 836.00
38.9168 775.00
38.982 729.00
39.0472 665.00
39.1124 734.00
39.1776 713.00
39.2428 708.00
39.308 853.00
39.3732 1097.00
39.4384 1493.00
39.5036 1536.00
39.5688 1311.00
39.634 994.00
39.6992 800.00
39.7644 713.00
39.8296 695.00
39.8948 652.00
39.96 638.00
40.0252 656.00
40.0904 733.00
40.1556 697.00
40.2208 657.00
40.286 641.00
40.3512 601.00
40.4164 632.00
40.4816 602.00
40.5468 584.00
40.612 581.00
40.6772 552.00
40.7424 545.00
40.8076 561.00
40.8728 513.00
40.938 496.00
41.0032 567.00
41.0684 547.00
41.1336 565.00
41.1988 527.00
41.264 563.00
41.3292 500.00
41.3944 486.00
41.4596 518.00
41.5248 554.00
41.59 577.00
41.6552 515.00
41.7204 526.00
41.7856 538.00
41.8508 536.00
41.916 538.00
41.9812 519.00
42.0464 530.00
42.1116 512.00
42.1768 521.00
42.242 497.00
42.3072 543.00
42.3724 495.00
42.4376 513.00
42.5028 481.00
42.568 534.00
42.6332 503.00
42.6983 517.00
42.7635 553.00
42.8287 551.00
42.8939 551.00
42.9591 576.00
43.0243 699.00
43.0895 821.00
43.1547 805.00
43.2199 786.00
43.2851 612.00
43.3503 575.00
43.4155 531.00
43.4807 526.00
43.5459 520.00
43.6111 495.00
43.6763 451.00
43.7415 468.00
43.8067 521.00
43.8719 527.00
43.9371 539.00
44.0023 525.00
44.0675 474.00
44.1327 539.00
44.1979 523.00
44.2631 507.00
44.3283 541.00
44.3935 498.00
44.4587 461.00
44.5239 475.00
44.5891 451.00
44.6543 436.00
44.7195 466.00
44.7847 512.00
44.8499 434.00
44.9151 451.00
44.9803 490.00
45.0455 465.00
45.1107 491.00
45.1759 433.00
45.2411 494.00
45.3063 487.00
45.3715 476.00
45.4367 505.00
45.5019 481.00
45.5671 433.00
45.6323 471.00
45.6975 443.00
45.7627 433.00
45.8279 465.00
45.8931 477.00
45.9583 466.00
46.0235 426.00
46.0887 494.00
46.1539 447.00
46.2191 463.00
46.2843 444.00
46.3495 459.00
46.4147 455.00
46.4799 422.00
46.5451 455.00
46.6103 464.00
46.6755 435.00
46.7407 462.00
46.8059 461.00
46.8711 462.00
46.9363 493.00
47.0015 498.00
47.0667 487.00
47.1319 456.00
47.1971 468.00
47.2623 478.00
47.3275 476.00
47.3927 436.00
47.4579 433.00
47.523 437.00
47.5882 408.00
47.6534 440.00
47.7186 479.00
47.7838 412.00
47.849 428.00
47.9142 493.00
47.9794 454.00
48.0446 462.00
48.1098 438.00
48.175 451.00
48.2402 446.00
48.3054 462.00
48.3706 444.00
48.4358 486.00
48.501 398.00
48.5662 412.00
48.6314 433.00
48.6966 444.00
48.7618 451.00
48.827 444.00
48.8922 436.00
48.9574 428.00
49.0226 468.00
49.0878 458.00
49.153 510.00
49.2182 463.00
49.2834 535.00
49.3486 518.00
49.4138 506.00
49.479 497.00
49.5442 481.00
49.6094 470.00
49.6746 461.00
49.7398 477.00
49.805 446.00
49.8702 436.00
49.9354 404.00
50.0006 466.00
50.0658 462.00
50.131 441.00
50.1962 465.00
50.2614 451.00
50.3266 500.00
50.3918 451.00
50.457 475.00
50.5222 474.00
50.5874 487.00
50.6526 509.00
50.7178 498.00
50.783 511.00
50.8482 511.00
50.9134 537.00
50.9786 567.00
51.0438 540.00
51.109 543.00
51.1742 542.00
51.2394 587.00
51.3046 576.00
51.3698 587.00
51.435 631.00
51.5002 640.00
51.5654 695.00
51.6306 761.00
51.6958 830.00
51.761 1000.00
51.8262 1195.00
51.8914 1390.00
51.9566 1808.00
52.0218 2656.00
52.087 4487.00
52.1522 8782.00
52.2174 13923.00
52.2826 14423.00
52.3477 11434.00
52.4129 8540.00
52.4781 4817.00
52.5433 2735.00
52.6085 1808.00
52.6737 1310.00
52.7389 1054.00
52.8041 930.00
52.8693 749.00
52.9345 696.00
52.9997 670.00
53.0649 587.00
53.1301 646.00
53.1953 558.00
53.2605 616.00
53.3257 537.00
53.3909 515.00
53.4561 524.00
53.5213 555.00
53.5865 534.00
53.6517 511.00
53.7169 510.00
53.7821 526.00
53.8473 525.00
53.9125 504.00
53.9777 484.00
54.0429 511.00
54.1081 551.00
54.1733 451.00
54.2385 495.00
54.3037 485.00
54.3689 498.00
54.4341 526.00
54.4993 508.00
54.5645 504.00
54.6297 588.00
54.6949 578.00
54.7601 595.00
54.8253 664.00
54.8905 714.00
54.9557 867.00
55.0209 1107.00
55.0861 1639.00
55.1513 2814.00
55.2165 3736.00
55.2817 3378.00
55.3469 2771.00
55.4121 2014.00
55.4773 1366.00
55.5425 887.00
55.6077 715.00
55.6729 598.00
55.7381 487.00
55.8033 534.00
55.8685 511.00
55.9337 538.00
55.9989 466.00
56.0641 495.00
56.1293 429.00
56.1945 453.00
56.2597 472.00
56.3249 442.00
56.3901 511.00
56.4553 424.00
56.5205 447.00
56.5857 477.00
56.6509 459.00
56.7161 443.00
56.7813 431.00
56.8465 471.00
56.9117 465.00
56.9769 437.00
57.042 479.00
57.1073 487.00
57.1724 462.00
57.2376 476.00
57.3028 425.00
57.368 475.00
57.4332 463.00
57.4984 467.00
57.5636 465.00
57.6288 418.00
57.694 438.00
57.7592 516.00
57.8244 513.00
57.8896 499.00
57.9548 608.00
58.02 634.00
58.0852 792.00
58.1504 1065.00
58.2156 1556.00
58.2808 1889.00
58.346 1830.00
58.4112 1546.00
58.4764 1237.00
58.5416 892.00
58.6068 769.00
58.672 611.00
58.7372 551.00
58.8024 512.00
58.8676 498.00
58.9328 457.00
58.998 466.00
59.0632 429.00
59.1284 447.00
59.1936 443.00
59.2588 429.00
59.324 491.00
59.3892 503.00
59.4544 481.00
59.5196 464.00
59.5848 423.00
59.65 427.00
59.7152 431.00
59.7804 437.00
59.8456 416.00
59.9108 415.00
59.976 442.00
60.0412 440.00
60.1064 490.00
60.1716 468.00
60.2368 470.00
60.302 442.00
60.3672 438.00
60.4324 394.00
60.4976 431.00
60.5628 410.00
60.628 396.00
60.6932 427.00
60.7584 406.00
60.8236 377.00
60.8888 399.00
60.954 407.00
61.0192 425.00
61.0844 429.00
61.1496 438.00
61.2148 422.00
61.28 441.00
61.3452 437.00
61.4104 441.00
61.4756 446.00
61.5408 437.00
61.606 445.00
61.6712 501.00
61.7364 501.00
61.8016 504.00
61.8667 549.00
61.932 645.00
61.9971 639.00
62.0623 782.00
62.1275 972.00
62.1927 1484.00
62.2579 2539.00
62.3231 3402.00
62.3883 2980.00
62.4535 2454.00
62.5187 2105.00
62.5839 1456.00
62.6491 1021.00
62.7143 735.00
62.7795 639.00
62.8447 595.00
62.9099 520.00
62.9751 572.00
63.0403 503.00
63.1055 438.00
63.1707 447.00
63.2359 463.00
63.3011 413.00
63.3663 474.00
63.4315 430.00
63.4967 446.00
63.5619 444.00
63.6271 446.00
63.6923 457.00
63.7575 437.00
63.8227 431.00
63.8879 433.00
63.9531 431.00
64.0183 451.00
64.0835 465.00
64.1487 470.00
64.2139 425.00
64.2791 472.00
64.3443 479.00
64.4095 473.00
64.4747 466.00
64.5399 474.00
64.6051 566.00
64.6703 529.00
64.7355 597.00
64.8007 656.00
64.8659 745.00
64.9311 943.00
64.9963 1210.00
65.0615 1790.00
65.1267 2809.00
65.1919 3345.00
65.2571 2769.00
65.3223 2401.00
65.3875 1991.00
65.4527 1358.00
65.5179 1015.00
65.5831 814.00
65.6483 681.00
65.7135 641.00
65.7787 631.00
65.8439 681.00
65.9091 649.00
65.9743 714.00
66.0395 799.00
66.1047 877.00
66.1699 1034.00
66.2351 1446.00
66.3003 2421.00
66.3655 3733.00
66.4307 3823.00
66.4959 3127.00
66.561 2756.00
66.6263 2298.00
66.6915 1443.00
66.7566 974.00
66.8218 701.00
66.887 663.00
66.9522 571.00
67.0174 454.00
67.0826 481.00
67.1478 449.00
67.213 391.00
67.2782 425.00
67.3434 409.00
67.4086 434.00
67.4738 426.00
67.539 408.00
67.6042 420.00
67.6694 424.00
67.7346 392.00
67.7998 424.00
67.865 433.00
67.9302 362.00
67.9954 355.00
68.0606 359.00
68.1258 407.00
68.191 371.00
68.2562 372.00
68.3214 364.00
68.3866 378.00
68.4518 369.00
68.517 400.00
68.5822 360.00
68.6474 348.00
68.7126 357.00
68.7778 377.00
68.843 390.00
68.9082 343.00
68.9734 393.00
69.0386 372.00
69.1038 370.00
69.169 392.00
69.2342 366.00
69.2994 344.00
69.3646 372.00
69.4298 411.00
69.495 348.00
69.5602 360.00
69.6254 421.00
69.6906 406.00
69.7558 424.00
69.821 402.00
69.8862 364.00
69.9514 440.00
70.0166 391.00
70.0818 332.00
70.147 363.00
70.2122 354.00
70.2774 346.00
70.3426 369.00
70.4078 383.00
70.473 400.00
70.5382 381.00
70.6034 331.00
70.6686 366.00
70.7338 380.00
70.799 353.00
70.8642 338.00
70.9294 376.00
70.9946 401.00
71.0598 388.00
71.125 411.00
71.1902 435.00
71.2554 431.00
71.3205 442.00
71.3858 524.00
71.451 578.00
71.5162 663.00
71.5813 1033.00
71.6465 1605.00
71.7117 1835.00
71.7769 1472.00
71.8421 1265.00
71.9073 1266.00
71.9725 958.00
72.0377 680.00
72.1029 527.00
72.1681 510.00
72.2333 444.00
72.2985 481.00
72.3637 401.00
72.4289 377.00
72.4941 392.00
72.5593 362.00
72.6245 345.00
72.6897 365.00
72.7549 350.00
72.8201 389.00
72.8853 385.00
72.9505 358.00
73.0157 347.00
73.0809 366.00
73.1461 324.00
73.2113 370.00
73.2765 399.00
73.3417 345.00
73.4069 335.00
73.4721 330.00
73.5373 333.00
73.6025 342.00
73.6677 343.00
73.7329 361.00
73.7981 309.00
73.8633 397.00
73.9285 345.00
73.9937 351.00
74.0589 330.00
74.1241 355.00
74.1893 340.00
74.2545 343.00
74.3197 317.00
74.3849 361.00
74.4501 328.00
74.5153 360.00
74.5805 380.00
74.6457 369.00
74.7109 358.00
74.7761 357.00
74.8413 372.00
74.9065 385.00
74.9717 331.00
75.0369 345.00
75.1021 368.00
75.1673 351.00
75.2325 323.00
75.2977 320.00
75.3629 394.00
75.4281 319.00
75.4933 339.00
75.5585 342.00
75.6237 343.00
75.6889 354.00
75.7541 316.00
75.8193 326.00
75.8845 347.00
75.9497 333.00
76.0149 354.00
76.0801 324.00
76.1452 343.00
76.2104 371.00
76.2756 321.00
76.3409 299.00
76.406 310.00
76.4712 345.00
76.5364 347.00
76.6016 312.00
76.6668 323.00
76.732 333.00
76.7972 360.00
76.8624 354.00
76.9276 335.00
76.9928 349.00
77.058 315.00
77.1232 345.00
77.1884 367.00
77.2536 326.00
77.3188 318.00
77.384 330.00
77.4492 352.00
77.5144 352.00
77.5796 343.00
77.6448 355.00
77.71 337.00
77.7752 330.00
77.8404 327.00
77.9056 353.00
77.9708 354.00
78.036 349.00
78.1012 352.00
78.1664 363.00
78.2316 376.00
78.2968 361.00
78.362 350.00
78.4272 374.00
78.4924 395.00
78.5576 405.00
78.6228 446.00
78.688 502.00
78.7532 534.00
78.8184 588.00
78.8836 761.00
78.9488 1044.00
79.014 1558.00
79.0792 2419.00
79.1444 2440.00
79.2096 1788.00
79.2748 1701.00
79.34 1757.00
79.4052 1405.00
79.4704 880.00
79.5356 644.00
79.6008 542.00
79.666 456.00
79.7312 424.00
79.7964 405.00
79.8616 394.00
79.9268 320.00
79.992 388.00
80.0572 364.00
80.1224 367.00
80.1876 338.00
80.2528 368.00
80.318 397.00
80.3832 368.00
80.4484 370.00
80.5136 383.00
80.5788 332.00
80.644 330.00
80.7092 318.00
80.7744 397.00
80.8396 375.00
80.9048 370.00
80.9699 336.00
81.0351 359.00
81.1003 393.00
81.1655 425.00
81.2307 421.00
81.2959 473.00
81.3611 573.00
81.4263 678.00
81.4915 938.00
81.5567 966.00
81.6219 823.00
81.6871 739.00
81.7523 743.00
81.8175 698.00
81.8827 529.00
81.9479 443.00
82.0131 437.00
82.0783 398.00
82.1435 396.00
82.2087 366.00
82.2739 363.00
82.3391 349.00
82.4043 375.00
82.4695 342.00
82.5347 357.00
82.5999 331.00
82.6651 369.00
82.7303 326.00
82.7955 312.00
82.8607 380.00
82.9259 342.00
82.9911 353.00
83.0563 345.00
83.1215 367.00
83.1867 355.00
83.2519 342.00
83.3171 386.00
83.3823 348.00
83.4475 386.00
83.5127 352.00
83.5779 370.00
83.6431 416.00
83.7083 441.00
83.7735 493.00
83.8387 539.00
83.9039 699.00
83.9691 945.00
84.0343 1545.00
84.0995 1954.00
84.1647 1606.00
84.2299 1213.00
84.2951 1216.00
84.3603 1283.00
84.4255 961.00
84.4907 696.00
84.5559 541.00
84.6211 535.00
84.6863 455.00
84.7515 407.00
84.8167 428.00
84.8819 370.00
84.9471 365.00
85.0123 335.00
85.0775 357.00
85.1427 335.00
85.2079 345.00
85.2731 330.00
85.3383 358.00
85.4035 359.00
85.4687 349.00
85.5339 340.00
85.5991 343.00
85.6643 340.00
85.7295 299.00
85.7946 302.00
85.8598 323.00
85.925 317.00
85.9903 354.00
86.0554 315.00
86.1206 324.00
86.1858 323.00
86.251 370.00
86.3162 333.00
86.3814 295.00
86.4466 314.00
86.5118 325.00
86.577 342.00
86.6422 341.00
86.7074 346.00
86.7726 345.00
86.8378 342.00
86.903 351.00
86.9682 359.00
87.0334 382.00
87.0986 374.00
87.1638 413.00
87.229 395.00
87.2942 406.00
87.3594 457.00
87.4246 532.00
87.4898 666.00
87.555 965.00
87.6202 1090.00
87.6854 834.00
87.7506 675.00
87.8158 725.00
87.881 748.00
87.9462 595.00
88.0114 490.00
88.0766 448.00
88.1418 404.00
88.207 395.00
88.2722 382.00
88.3374 387.00
88.4026 349.00
88.4678 310.00
88.533 357.00
88.5982 347.00
88.6634 307.00
88.7286 347.00
88.7938 333.00
88.859 351.00
88.9242 354.00
88.9894 359.00
89.0546 351.00
89.1198 354.00
89.185 365.00
89.2502 352.00
89.3154 388.00
89.3806 394.00
89.4458 403.00
89.511 400.00
89.5762 422.00
89.6414 449.00
89.7066 476.00
89.7718 472.00
89.837 587.00
89.9022 657.00
89.9674 797.00
90.0326 1242.00
90.0978 1855.00
90.163 2173.00
90.2282 1629.00
90.2934 1323.00
90.3586 1311.00
90.4238 1441.00
90.489 1180.00
90.5542 913.00
90.6193 692.00
90.6845 636.00
90.7497 619.00
90.8149 525.00
90.8801 528.00
90.9453 646.00
91.0105 630.00
91.0757 890.00
91.1409 1250.00
91.2061 1890.00
91.2713 2262.00
91.3365 1819.00
91.4017 1385.00
91.4669 1290.00
91.5321 1437.00
91.5973 1233.00
91.6625 874.00
91.7277 655.00
91.7929 520.00
91.8581 494.00
91.9233 437.00
91.9885 445.00
92.0537 394.00
92.1189 402.00
92.1841 380.00
92.2493 366.00
92.3145 351.00
92.3797 360.00
92.4449 373.00
92.5101 376.00
92.5753 354.00
92.6405 416.00
92.7057 354.00
92.7709 373.00
92.8361 363.00
92.9013 325.00
92.9665 381.00
93.0317 344.00
93.0969 400.00
93.1621 381.00
93.2273 415.00
93.2925 419.00
93.3577 460.00
93.4229 529.00
93.4881 665.00
93.5533 884.00
93.6185 1185.00
93.6837 1121.00
93.7489 823.00
93.8141 735.00
93.8793 797.00
93.9445 833.00
94.0097 711.00
94.0749 527.00
94.1401 457.00
94.2053 370.00
94.2705 392.00
94.3357 397.00
94.4009 382.00
94.4661 335.00
94.5313 328.00
94.5965 380.00
94.6617 344.00
94.7269 331.00
94.7921 365.00
94.8573 317.00
94.9225 299.00
94.9877 354.00
95.0529 336.00
95.1181 379.00
95.1833 328.00
95.2485 329.00
95.3137 325.00
95.3789 336.00
95.444 341.00
95.5092 332.00
95.5744 379.00
95.6396 350.00
95.7048 383.00
95.77 353.00
95.8352 405.00
95.9004 357.00
95.9656 368.00
96.0308 432.00
96.096 467.00
96.1612 539.00
96.2264 680.00
96.2916 905.00
96.3568 1110.00
96.422 866.00
96.4872 772.00
96.5524 710.00
96.6176 741.00
96.6828 746.00
96.748 645.00
96.8132 495.00
96.8784 435.00
96.9436 423.00
97.0088 378.00
97.074 388.00
97.1392 358.00
97.2044 374.00
97.2696 342.00
97.3348 350.00
97.4 322.00
97.4652 339.00
97.5304 338.00
97.5956 288.00
97.6608 361.00
97.726 353.00
97.7912 301.00
97.8564 309.00
97.9216 307.00
97.9868 330.00
98.052 315.00
98.1172 320.00
98.1824 318.00
98.2476 317.00
98.3128 287.00
98.378 356.00
98.4432 320.00
98.5084 337.00
98.5736 325.00
98.6388 332.00
98.704 349.00
98.7692 326.00
98.8344 316.00
98.8996 326.00
98.9648 302.00
99.03 339.00
99.0952 344.00
99.1604 325.00
99.2256 340.00
99.2908 373.00
99.356 339.00
99.4212 320.00
99.4864 347.00
99.5516 312.00
99.6168 333.00
99.682 351.00
99.7472 283.00
99.8124 346.00
99.8776 325.00
99.9428 312.00
100.008 313.00
100.073 314.00
100.095 336.00