File: data/xrd_creation/results/PG_2239-1.xy
9.903433 4472.00
9.968632 4460.00
10.0338 4453.00
10.099 4534.00
10.1642 4383.00
10.2294 4321.00
10.2946 4381.00
10.3598 4379.00
10.425 4368.00
10.4902 4424.00
10.5554 4365.00
10.6206 4346.00
10.6858 4301.00
10.751 4427.00
10.8162 4323.00
10.8814 4198.00
10.9466 4388.00
11.0118 4305.00
11.077 4203.00
11.1422 4182.00
11.2074 4195.00
11.2726 4350.00
11.3378 4318.00
11.403 4362.00
11.4682 4442.00
11.5334 4272.00
11.5986 4317.00
11.6638 4357.00
11.729 4326.00
11.7942 4231.00
11.8594 4328.00
11.9246 4194.00
11.9898 4150.00
12.055 4233.00
12.1202 4313.00
12.1854 4254.00
12.2506 4154.00
12.3158 4314.00
12.381 4147.00
12.4462 4385.00
12.5114 4254.00
12.5766 4222.00
12.6418 4325.00
12.707 4327.00
12.7722 4278.00
12.8374 4327.00
12.9026 4297.00
12.9678 4252.00
13.033 4151.00
13.0982 4318.00
13.1634 4133.00
13.2286 4211.00
13.2938 4253.00
13.359 4135.00
13.4242 4291.00
13.4894 4407.00
13.5546 4273.00
13.6198 4231.00
13.685 4331.00
13.7502 4345.00
13.8154 4194.00
13.8805 4234.00
13.9457 4402.00
14.0109 4324.00
14.0761 4362.00
14.1413 4358.00
14.2065 4396.00
14.2717 4299.00
14.3369 4324.00
14.4021 4332.00
14.4673 4336.00
14.5325 4362.00
14.5977 4174.00
14.6629 4343.00
14.7281 4280.00
14.7933 4344.00
14.8585 4485.00
14.9237 4477.00
14.9889 4393.00
15.0541 4431.00
15.1193 4453.00
15.1845 4336.00
15.2497 4370.00
15.3149 4441.00
15.3801 4420.00
15.4453 4336.00
15.5105 4428.00
15.5757 4435.00
15.6409 4332.00
15.7061 4441.00
15.7713 4413.00
15.8365 4262.00
15.9017 4354.00
15.9669 4333.00
16.0321 4409.00
16.0973 4505.00
16.1625 4500.00
16.2277 4452.00
16.2929 4434.00
16.3581 4367.00
16.4233 4513.00
16.4885 4484.00
16.5537 4580.00
16.6189 4503.00
16.6841 4501.00
16.7493 4390.00
16.8145 4481.00
16.8797 4508.00
16.9449 4509.00
17.0101 4491.00
17.0753 4537.00
17.1405 4556.00
17.2057 4575.00
17.2709 4631.00
17.3361 4602.00
17.4013 4721.00
17.4665 4575.00
17.5317 4530.00
17.5969 4644.00
17.6621 4465.00
17.7273 4626.00
17.7925 4590.00
17.8577 4589.00
17.9229 4562.00
17.9881 4649.00
18.0533 4580.00
18.1185 4665.00
18.1837 4738.00
18.2489 4530.00
18.3141 4654.00
18.3793 4601.00
18.4445 4514.00
18.5097 4607.00
18.5749 4567.00
18.6401 4475.00
18.7052 4649.00
18.7704 4610.00
18.8356 4663.00
18.9008 4685.00
18.966 4598.00
19.0312 4548.00
19.0964 4731.00
19.1616 4616.00
19.2268 4578.00
19.292 4588.00
19.3572 4673.00
19.4224 4637.00
19.4876 4646.00
19.5528 4652.00
19.618 4644.00
19.6832 4678.00
19.7484 4693.00
19.8136 4716.00
19.8788 4577.00
19.944 4603.00
20.0092 4785.00
20.0744 4593.00
20.1396 4748.00
20.2048 4691.00
20.27 4635.00
20.3352 4598.00
20.4004 4665.00
20.4656 4680.00
20.5308 4716.00
20.596 4741.00
20.6612 4644.00
20.7264 4672.00
20.7916 4835.00
20.8568 4991.00
20.922 4809.00
20.9872 4925.00
21.0524 4915.00
21.1176 5155.00
21.1828 5322.00
21.248 5876.00
21.3132 6380.00
21.3784 7580.00
21.4436 9100.00
21.5088 12271.00
21.574 16848.00
21.6392 20144.00
21.7044 12480.00
21.7696 6335.00
21.8348 5279.00
21.9 5119.00
21.9652 4982.00
22.0304 4880.00
22.0956 5051.00
22.1608 4944.00
22.226 4892.00
22.2912 4774.00
22.3564 4890.00
22.4216 4862.00
22.4868 4831.00
22.552 4879.00
22.6172 4851.00
22.6824 4826.00
22.7476 4836.00
22.8128 4798.00
22.878 4787.00
22.9432 4858.00
23.0084 4783.00
23.0736 4772.00
23.1388 4968.00
23.204 4809.00
23.2692 5091.00
23.3344 5002.00
23.3996 5221.00
23.4647 5431.00
23.5299 5608.00
23.5951 6262.00
23.6603 7000.00
23.7255 7186.00
23.7907 6673.00
23.8559 5638.00
23.9211 5096.00
23.9863 4982.00
24.0515 4876.00
24.1167 4954.00
24.1819 4904.00
24.2471 4922.00
24.3123 4830.00
24.3775 4868.00
24.4427 4921.00
24.5079 4840.00
24.5731 4851.00
24.6383 4871.00
24.7035 5034.00
24.7687 4837.00
24.8339 4807.00
24.8991 4986.00
24.9643 4934.00
25.0295 4867.00
25.0947 4779.00
25.1599 4975.00
25.2251 4934.00
25.2903 4840.00
25.3555 4882.00
25.4207 4832.00
25.4859 4850.00
25.5511 4850.00
25.6163 4871.00
25.6815 4799.00
25.7467 4854.00
25.8119 4936.00
25.8771 4884.00
25.9423 4962.00
26.0075 4891.00
26.0727 4948.00
26.1379 4888.00
26.2031 4758.00
26.2683 4932.00
26.3335 4905.00
26.3987 4842.00
26.4639 4889.00
26.5291 4949.00
26.5943 4878.00
26.6595 4919.00
26.7247 4876.00
26.7899 4901.00
26.8551 4809.00
26.9203 4854.00
26.9855 4799.00
27.0507 4906.00
27.1159 4795.00
27.1811 4880.00
27.2463 4787.00
27.3115 4889.00
27.3767 4889.00
27.4419 4953.00
27.5071 5018.00
27.5723 4872.00
27.6375 4961.00
27.7027 4954.00
27.7679 4905.00
27.8331 4994.00
27.8983 4856.00
27.9635 4921.00
28.0287 4923.00
28.0939 4976.00
28.1591 4896.00
28.2243 4996.00
28.2894 4923.00
28.3546 4790.00
28.4198 4979.00
28.485 5014.00
28.5502 5056.00
28.6154 4830.00
28.6806 4939.00
28.7458 4992.00
28.811 5049.00
28.8762 5032.00
28.9414 5077.00
29.0066 5007.00
29.0718 4962.00
29.137 5089.00
29.2022 5228.00
29.2674 5098.00
29.3326 5335.00
29.3978 5601.00
29.463 5611.00
29.5282 6171.00
29.5934 7127.00
29.6586 8058.00
29.7238 9449.00
29.789 8708.00
29.8542 6935.00
29.9194 5819.00
29.9846 5379.00
30.0498 5175.00
30.115 5108.00
30.1802 5378.00
30.2454 5297.00
30.3106 5373.00
30.3758 5649.00
30.441 5874.00
30.5062 6456.00
30.5714 7223.00
30.6366 8490.00
30.7018 10446.00
30.767 13080.00
30.8322 16839.00
30.8974 18620.00
30.9626 14405.00
31.0278 9157.00
31.093 6446.00
31.1582 5759.00
31.2234 5510.00
31.2886 5448.00
31.3538 5407.00
31.419 5398.00
31.4842 5636.00
31.5494 5783.00
31.6146 6325.00
31.6798 6902.00
31.745 7968.00
31.8102 9498.00
31.8754 11911.00
31.9406 16186.00
32.0058 21581.00
32.071 24763.00
32.1362 19454.00
32.2014 12312.00
32.2666 7849.00
32.3318 6423.00
32.397 5815.00
32.4622 5582.00
32.5274 5475.00
32.5926 5421.00
32.6578 5264.00
32.723 5251.00
32.7882 5246.00
32.8534 5283.00
32.9186 5175.00
32.9838 5160.00
33.0489 5178.00
33.1141 5117.00
33.1793 5064.00
33.2445 5261.00
33.3097 5178.00
33.3749 5227.00
33.4401 5092.00
33.5053 5261.00
33.5705 5117.00
33.6357 5084.00
33.7009 5128.00
33.7661 5155.00
33.8313 5133.00
33.8965 5312.00
33.9617 5637.00
34.0269 5734.00
34.0921 6033.00
34.1573 6816.00
34.2225 7617.00
34.2877 9208.00
34.3529 10867.00
34.4181 10898.00
34.4833 8244.00
34.5485 6259.00
34.6137 5635.00
34.6789 5328.00
34.7441 5344.00
34.8093 5181.00
34.8745 5203.00
34.9397 5093.00
35.0049 5184.00
35.0701 5150.00
35.1353 4993.00
35.2005 4972.00
35.2657 5195.00
35.3309 5025.00
35.3961 5217.00
35.4613 5118.00
35.5265 5112.00
35.5917 5084.00
35.6569 5034.00
35.7221 5158.00
35.7873 5247.00
35.8525 5216.00
35.9177 5288.00
35.9829 5321.00
36.0481 5756.00
36.1133 5911.00
36.1785 6512.00
36.2437 7663.00
36.3089 9128.00
36.3741 9966.00
36.4393 7690.00
36.5045 6357.00
36.5697 5682.00
36.6349 5707.00
36.7001 5569.00
36.7653 5731.00
36.8305 5903.00
36.8957 6382.00
36.9609 7333.00
37.0261 8262.00
37.0913 10190.00
37.1565 13340.00
37.2217 16818.00
37.2869 18483.00
37.3521 20285.00
37.4173 24976.00
37.4825 32931.00
37.5477 35121.00
37.6129 25882.00
37.6781 15482.00
37.7433 9313.00
37.8085 7106.00
37.8736 6329.00
37.9388 6075.00
38.004 5607.00
38.0692 5425.00
38.1344 5472.00
38.1996 5373.00
38.2648 5294.00
38.33 5325.00
38.3952 5265.00
38.4604 5360.00
38.5256 5247.00
38.5908 5157.00
38.656 5135.00
38.7212 5255.00
38.7864 5131.00
38.8516 5044.00
38.9168 5138.00
38.982 5117.00
39.0472 5129.00
39.1124 5210.00
39.1776 5199.00
39.2428 5227.00
39.308 5362.00
39.3732 5311.00
39.4384 5419.00
39.5036 5511.00
39.5688 5801.00
39.634 6158.00
39.6992 6770.00
39.7644 7867.00
39.8296 9088.00
39.8948 8766.00
39.96 7513.00
40.0252 6551.00
40.0904 6456.00
40.1556 7058.00
40.2208 7267.00
40.286 6409.00
40.3512 5911.00
40.4164 5344.00
40.4816 5288.00
40.5468 5249.00
40.612 5217.00
40.6772 5123.00
40.7424 5150.00
40.8076 5158.00
40.8728 5080.00
40.938 5180.00
41.0032 5190.00
41.0684 5161.00
41.1336 5106.00
41.1988 5167.00
41.264 5106.00
41.3292 5085.00
41.3944 5050.00
41.4596 5168.00
41.5248 5185.00
41.59 4964.00
41.6552 5099.00
41.7204 5165.00
41.7856 5196.00
41.8508 5045.00
41.916 5036.00
41.9812 5192.00
42.0464 5182.00
42.1116 5153.00
42.1768 5322.00
42.242 5366.00
42.3072 5262.00
42.3724 5139.00
42.4376 5365.00
42.5028 5474.00
42.568 5477.00
42.6332 5458.00
42.6983 5608.00
42.7635 5743.00
42.8287 5858.00
42.8939 6261.00
42.9591 6532.00
43.0243 6901.00
43.0895 7494.00
43.1547 8898.00
43.2199 11559.00
43.2851 15045.00
43.3503 20635.00
43.4155 29371.00
43.4807 43138.00
43.5459 56334.00
43.6111 46457.00
43.6763 32386.00
43.7415 17681.00
43.8067 9907.00
43.8719 7987.00
43.9371 6755.00
44.0023 6108.00
44.0675 5862.00
44.1327 5624.00
44.1979 5575.00
44.2631 5388.00
44.3283 5379.00
44.3935 5337.00
44.4587 5374.00
44.5239 5263.00
44.5891 5341.00
44.6543 5425.00
44.7195 5299.00
44.7847 5189.00
44.8499 5131.00
44.9151 5278.00
44.9803 5216.00
45.0455 5227.00
45.1107 5305.00
45.1759 5269.00
45.2411 5554.00
45.3063 5458.00
45.3715 5287.00
45.4367 5352.00
45.5019 5088.00
45.5671 5137.00
45.6323 5235.00
45.6975 5087.00
45.7627 5251.00
45.8279 5140.00
45.8931 5167.00
45.9583 5019.00
46.0235 5109.00
46.0887 5009.00
46.1539 5083.00
46.2191 5075.00
46.2843 5098.00
46.3495 5140.00
46.4147 5235.00
46.4799 5013.00
46.5451 5096.00
46.6103 5006.00
46.6755 5059.00
46.7407 5158.00
46.8059 5205.00
46.8711 5154.00
46.9363 5024.00
47.0015 5156.00
47.0667 5021.00
47.1319 5084.00
47.1971 5020.00
47.2623 5008.00
47.3275 5237.00
47.3927 5198.00
47.4579 5100.00
47.523 5141.00
47.5882 5187.00
47.6534 5241.00
47.7186 5212.00
47.7838 5159.00
47.849 5219.00
47.9142 5220.00
47.9794 5288.00
48.0446 5327.00
48.1098 5224.00
48.175 5239.00
48.2402 5413.00
48.3054 5301.00
48.3706 5190.00
48.4358 5240.00
48.501 5095.00
48.5662 5309.00
48.6314 5399.00
48.6966 5532.00
48.7618 5906.00
48.827 6265.00
48.8922 6933.00
48.9574 7563.00
49.0226 7785.00
49.0878 7314.00
49.153 6553.00
49.2182 6050.00
49.2834 5535.00
49.3486 5333.00
49.4138 5129.00
49.479 5199.00
49.5442 5057.00
49.6094 5010.00
49.6746 5019.00
49.7398 5061.00
49.805 5112.00
49.8702 5012.00
49.9354 5140.00
50.0006 5028.00
50.0658 4953.00
50.131 5083.00
50.1962 5209.00
50.2614 5172.00
50.3266 5290.00
50.3918 5474.00
50.457 5362.00
50.5222 5611.00
50.5874 5779.00
50.6526 5568.00
50.7178 5423.00
50.783 5138.00
50.8482 5111.00
50.9134 5119.00
50.9786 5077.00
51.0438 5129.00
51.109 4944.00
51.1742 5037.00
51.2394 5047.00
51.3046 4852.00
51.3698 5080.00
51.435 4978.00
51.5002 5074.00
51.5654 5045.00
51.6306 5021.00
51.6958 5044.00
51.761 5020.00
51.8262 4982.00
51.8914 5051.00
51.9566 5039.00
52.0218 5116.00
52.087 5097.00
52.1522 4980.00
52.2174 4970.00
52.2826 4983.00
52.3477 4994.00
52.4129 4942.00
52.4781 4926.00
52.5433 4996.00
52.6085 5019.00
52.6737 5015.00
52.7389 5040.00
52.8041 4962.00
52.8693 5019.00
52.9345 5195.00
52.9997 5043.00
53.0649 5133.00
53.1301 5021.00
53.1953 4925.00
53.2605 4952.00
53.3257 5033.00
53.3909 4811.00
53.4561 5016.00
53.5213 4977.00
53.5865 4972.00
53.6517 5078.00
53.7169 4911.00
53.7821 4846.00
53.8473 4892.00
53.9125 4925.00
53.9777 5019.00
54.0429 4971.00
54.1081 4939.00
54.1733 5005.00
54.2385 4848.00
54.3037 5113.00
54.3689 5090.00
54.4341 5002.00
54.4993 4968.00
54.5645 5055.00
54.6297 4984.00
54.6949 5024.00
54.7601 4953.00
54.8253 5003.00
54.8905 4873.00
54.9557 5067.00
55.0209 4967.00
55.0861 5013.00
55.1513 4969.00
55.2165 4961.00
55.2817 4910.00
55.3469 4871.00
55.4121 5038.00
55.4773 5021.00
55.5425 5097.00
55.6077 5007.00
55.6729 4885.00
55.7381 4972.00
55.8033 4830.00
55.8685 5043.00
55.9337 5005.00
55.9989 5002.00
56.0641 5024.00
56.1293 5043.00
56.1945 4917.00
56.2597 4923.00
56.3249 5017.00
56.3901 5041.00
56.4553 5073.00
56.5205 4945.00
56.5857 5080.00
56.6509 5074.00
56.7161 5123.00
56.7813 5096.00
56.8465 5312.00
56.9117 5612.00
56.9769 5885.00
57.042 5979.00
57.1073 5475.00
57.1724 5458.00
57.2376 5158.00
57.3028 5115.00
57.368 5004.00
57.4332 5114.00
57.4984 5080.00
57.5636 5169.00
57.6288 5194.00
57.694 5235.00
57.7592 5424.00
57.8244 5695.00
57.8896 6111.00
57.9548 6283.00
58.02 6235.00
58.0852 6011.00
58.1504 5792.00
58.2156 5569.00
58.2808 5557.00
58.346 5565.00
58.4112 5541.00
58.4764 5657.00
58.5416 5757.00
58.6068 5833.00
58.672 5800.00
58.7372 5807.00
58.8024 5703.00
58.8676 5777.00
58.9328 5857.00
58.998 5997.00
59.0632 6003.00
59.1284 6241.00
59.1936 6365.00
59.2588 6258.00
59.324 6039.00
59.3892 5559.00
59.4544 5510.00
59.5196 5378.00
59.5848 5239.00
59.65 5401.00
59.7152 5493.00
59.7804 5847.00
59.8456 6071.00
59.9108 6556.00
59.976 6859.00
60.0412 6681.00
60.1064 6226.00
60.1716 5977.00
60.2368 5628.00
60.302 5261.00
60.3672 5059.00
60.4324 5068.00
60.4976 5079.00
60.5628 5037.00
60.628 5131.00
60.6932 5118.00
60.7584 5190.00
60.8236 5046.00
60.8888 5166.00
60.954 5098.00
61.0192 5237.00
61.0844 5242.00
61.1496 5433.00
61.2148 5600.00
61.28 5739.00
61.3452 6035.00
61.4104 5944.00
61.4756 5686.00
61.5408 5946.00
61.606 5891.00
61.6712 5968.00
61.7364 5640.00
61.8016 5637.00
61.8667 5375.00
61.932 5341.00
61.9971 5365.00
62.0623 5171.00
62.1275 5163.00
62.1927 5351.00
62.2579 5289.00
62.3231 5241.00
62.3883 5358.00
62.4535 5482.00
62.5187 5561.00
62.5839 5903.00
62.6491 6465.00
62.7143 7261.00
62.7795 8490.00
62.8447 10326.00
62.9099 13072.00
62.9751 16503.00
63.0403 21147.00
63.1055 23688.00
63.1707 21582.00
63.2359 17936.00
63.3011 14927.00
63.3663 11571.00
63.4315 8543.00
63.4967 7419.00
63.5619 6769.00
63.6271 6425.00
63.6923 6251.00
63.7575 5994.00
63.8227 5960.00
63.8879 5905.00
63.9531 5545.00
64.0183 5376.00
64.0835 5308.00
64.1487 5250.00
64.2139 5334.00
64.2791 5188.00
64.3443 5334.00
64.4095 5194.00
64.4747 5070.00
64.5399 4946.00
64.6051 5058.00
64.6703 5111.00
64.7355 5100.00
64.8007 5099.00
64.8659 5057.00
64.9311 5150.00
64.9963 5228.00
65.0615 5282.00
65.1267 5161.00
65.1919 5183.00
65.2571 5245.00
65.3223 5247.00
65.3875 5324.00
65.4527 5344.00
65.5179 5478.00
65.5831 5580.00
65.6483 5888.00
65.7135 5925.00
65.7787 5476.00
65.8439 5498.00
65.9091 5374.00
65.9743 5177.00
66.0395 5009.00
66.1047 4989.00
66.1699 4954.00
66.2351 4984.00
66.3003 5055.00
66.3655 4984.00
66.4307 4920.00
66.4959 5135.00
66.561 5029.00
66.6263 5000.00
66.6915 5046.00
66.7566 4963.00
66.8218 4984.00
66.887 5058.00
66.9522 5061.00
67.0174 5069.00
67.0826 4879.00
67.1478 5081.00
67.213 5090.00
67.2782 5252.00
67.3434 5392.00
67.4086 5291.00
67.4738 5252.00
67.539 5264.00
67.6042 5163.00
67.6694 5164.00
67.7346 5055.00
67.7998 5153.00
67.865 4987.00
67.9302 4980.00
67.9954 4876.00
68.0606 4966.00
68.1258 5107.00
68.191 5055.00
68.2562 5232.00
68.3214 5096.00
68.3866 5001.00
68.4518 5144.00
68.517 5099.00
68.5822 5066.00
68.6474 5005.00
68.7126 4981.00
68.7778 4924.00
68.843 4886.00
68.9082 4899.00
68.9734 4878.00
69.0386 4924.00
69.1038 4919.00
69.169 4984.00
69.2342 5034.00
69.2994 5007.00
69.3646 4977.00
69.4298 4911.00
69.495 5114.00
69.5602 5209.00
69.6254 5124.00
69.6906 5148.00
69.7558 5091.00
69.821 5085.00
69.8862 4997.00
69.9514 5122.00
70.0166 5027.00
70.0818 4851.00
70.147 4940.00
70.2122 5036.00
70.2774 4929.00
70.3426 4917.00
70.4078 4873.00
70.473 5030.00
70.5382 5036.00
70.6034 5087.00
70.6686 4981.00
70.7338 4962.00
70.799 4989.00
70.8642 4927.00
70.9294 4965.00
70.9946 5004.00
71.0598 4936.00
71.125 4885.00
71.1902 5035.00
71.2554 4846.00
71.3205 4851.00
71.3858 4889.00
71.451 4762.00
71.5162 4966.00
71.5813 4845.00
71.6465 5112.00
71.7117 4897.00
71.7769 4971.00
71.8421 5003.00
71.9073 4966.00
71.9725 5138.00
72.0377 5215.00
72.1029 5226.00
72.1681 5063.00
72.2333 5284.00
72.2985 4875.00
72.3637 5037.00
72.4289 5046.00
72.4941 4986.00
72.5593 5005.00
72.6245 4991.00
72.6897 4990.00
72.7549 4910.00
72.8201 5018.00
72.8853 4879.00
72.9505 4965.00
73.0157 4828.00
73.0809 4884.00
73.1461 5085.00
73.2113 4897.00
73.2765 5008.00
73.3417 5051.00
73.4069 4962.00
73.4721 4936.00
73.5373 5052.00
73.6025 5014.00
73.6677 5015.00
73.7329 5148.00
73.7981 5161.00
73.8633 5274.00
73.9285 5529.00
73.9937 5420.00
74.0589 5430.00
74.1241 5578.00
74.1893 5749.00
74.2545 5429.00
74.3197 5346.00
74.3849 5351.00
74.4501 5352.00
74.5153 4967.00
74.5805 5143.00
74.6457 4969.00
74.7109 5011.00
74.7761 4948.00
74.8413 5033.00
74.9065 5059.00
74.9717 5186.00
75.0369 5305.00
75.1021 5653.00
75.1673 5695.00
75.2325 6039.00
75.2977 6505.00
75.3629 7223.00
75.4281 7947.00
75.4933 9248.00
75.5585 10648.00
75.6237 11440.00
75.6889 10570.00
75.7541 9280.00
75.8193 8827.00
75.8845 7910.00
75.9497 6782.00
76.0149 5907.00
76.0801 5528.00
76.1452 5320.00
76.2104 5147.00
76.2756 5034.00
76.3409 4984.00
76.406 4969.00
76.4712 4977.00
76.5364 4948.00
76.6016 4879.00
76.6668 5084.00
76.732 4942.00
76.7972 5052.00
76.8624 4918.00
76.9276 5093.00
76.9928 4913.00
77.058 4923.00
77.1232 5003.00
77.1884 5151.00
77.2536 5022.00
77.3188 5058.00
77.384 5067.00
77.4492 4991.00
77.5144 4933.00
77.5796 4922.00
77.6448 4982.00
77.71 4980.00
77.7752 4884.00
77.8404 4806.00
77.9056 4863.00
77.9708 4931.00
78.036 4983.00
78.1012 4989.00
78.1664 5137.00
78.2316 4904.00
78.2968 4958.00
78.362 4902.00
78.4272 4936.00
78.4924 4988.00
78.5576 4918.00
78.6228 4821.00
78.688 4955.00
78.7532 4960.00
78.8184 4891.00
78.8836 5022.00
78.9488 5070.00
79.014 5058.00
79.0792 5232.00
79.1444 5359.00
79.2096 5552.00
79.2748 5890.00
79.34 6274.00
79.4052 6991.00
79.4704 7823.00
79.5356 8782.00
79.6008 9186.00
79.666 8362.00
79.7312 8039.00
79.7964 7835.00
79.8616 7201.00
79.9268 6289.00
79.992 5829.00
80.0572 5641.00
80.1224 5243.00
80.1876 5216.00
80.2528 5185.00
80.318 5031.00
80.3832 5034.00
80.4484 5017.00
80.5136 4886.00
80.5788 5015.00
80.644 4836.00
80.7092 4920.00
80.7744 5048.00
80.8396 5013.00
80.9048 5008.00
80.9699 4904.00
81.0351 4822.00
81.1003 5100.00
81.1655 5004.00
81.2307 4853.00
81.2959 4994.00
81.3611 5080.00
81.4263 4988.00
81.4915 4959.00
81.5567 5026.00
81.6219 5000.00
81.6871 4905.00
81.7523 4889.00
81.8175 4982.00
81.8827 4874.00
81.9479 4885.00
82.0131 5145.00
82.0783 4890.00
82.1435 5020.00
82.2087 4955.00
82.2739 5043.00
82.3391 4880.00
82.4043 4976.00
82.4695 5009.00
82.5347 4847.00
82.5999 4928.00
82.6651 4784.00
82.7303 4758.00
82.7955 4886.00
82.8607 4930.00
82.9259 4915.00
82.9911 4914.00
83.0563 4938.00
83.1215 4884.00
83.1867 5010.00
83.2519 5013.00
83.3171 4978.00
83.3823 4910.00
83.4475 5004.00
83.5127 4862.00
83.5779 4953.00
83.6431 4917.00
83.7083 4910.00
83.7735 5006.00
83.8387 4902.00
83.9039 5061.00
83.9691 4936.00
84.0343 4746.00
84.0995 4708.00
84.1647 4838.00
84.2299 4800.00
84.2951 4766.00
84.3603 4746.00
84.4255 4837.00
84.4907 4857.00
84.5559 4832.00
84.6211 4870.00
84.6863 4946.00
84.7515 4902.00
84.8167 4939.00
84.8819 4928.00
84.9471 4892.00
85.0123 4832.00
85.0775 4900.00
85.1427 4746.00
85.2079 4799.00
85.2731 4848.00
85.3383 4970.00
85.4035 4912.00
85.4687 4906.00
85.5339 4972.00
85.5991 5028.00
85.6643 4915.00
85.7295 4904.00
85.7946 4864.00
85.8598 4699.00
85.925 4925.00
85.9903 4995.00
86.0554 4781.00
86.1206 5022.00
86.1858 5027.00
86.251 5141.00
86.3162 5249.00
86.3814 5468.00
86.4466 5253.00
86.5118 5115.00
86.577 5222.00
86.6422 5207.00
86.7074 4946.00
86.7726 4987.00
86.8378 5007.00
86.903 4937.00
86.9682 5064.00
87.0334 4795.00
87.0986 4854.00
87.1638 4891.00
87.229 4831.00
87.2942 4895.00
87.3594 4884.00
87.4246 4945.00
87.4898 4760.00
87.555 4783.00
87.6202 4806.00
87.6854 4886.00
87.7506 4907.00
87.8158 4945.00
87.881 4870.00
87.9462 4792.00
88.0114 4824.00
88.0766 4780.00
88.1418 4910.00
88.207 4842.00
88.2722 4858.00
88.3374 4676.00
88.4026 4840.00
88.4678 4807.00
88.533 4871.00
88.5982 4839.00
88.6634 4837.00
88.7286 4872.00
88.7938 4742.00
88.859 4942.00
88.9242 4974.00
88.9894 4920.00
89.0546 4902.00
89.1198 4913.00
89.185 4810.00
89.2502 4754.00
89.3154 4756.00
89.3806 4724.00
89.4458 4792.00
89.511 4797.00
89.5762 4795.00
89.6414 4712.00
89.7066 4843.00
89.7718 4847.00
89.837 4858.00
89.9022 4740.00
89.9674 4782.00
90.0326 4756.00
90.0978 4836.00
90.163 4854.00
90.2282 4727.00
90.2934 4781.00
90.3586 4915.00
90.4238 4858.00
90.489 4676.00
90.5542 4777.00
90.6193 4666.00
90.6845 4890.00
90.7497 4849.00
90.8149 4794.00
90.8801 4789.00
90.9453 4846.00
91.0105 4713.00
91.0757 4725.00
91.1409 4825.00
91.2061 4882.00
91.2713 4763.00
91.3365 4798.00
91.4017 4991.00
91.4669 5045.00
91.5321 4913.00
91.5973 4785.00
91.6625 4803.00
91.7277 4703.00
91.7929 4707.00
91.8581 4774.00
91.9233 4892.00
91.9885 4801.00
92.0537 4920.00
92.1189 4900.00
92.1841 4840.00
92.2493 4955.00
92.3145 4887.00
92.3797 4991.00
92.4449 5229.00
92.5101 5167.00
92.5753 5228.00
92.6405 5156.00
92.7057 4942.00
92.7709 5082.00
92.8361 5131.00
92.9013 4844.00
92.9665 5000.00
93.0317 4967.00
93.0969 4711.00
93.1621 4859.00
93.2273 4887.00
93.2925 5082.00
93.3577 5022.00
93.4229 5003.00
93.4881 5005.00
93.5533 4921.00
93.6185 5028.00
93.6837 4906.00
93.7489 4826.00
93.8141 4976.00
93.8793 4869.00
93.9445 4882.00
94.0097 4773.00
94.0749 4907.00
94.1401 4787.00
94.2053 4928.00
94.2705 4888.00
94.3357 4742.00
94.4009 4965.00
94.4661 4964.00
94.5313 4763.00
94.5965 4821.00
94.6617 4937.00
94.7269 4882.00
94.7921 5018.00
94.8573 5007.00
94.9225 5158.00
94.9877 5400.00
95.0529 5789.00
95.1181 6131.00
95.1833 6615.00
95.2485 6751.00
95.3137 6163.00
95.3789 5810.00
95.444 5661.00
95.5092 5949.00
95.5744 5880.00
95.6396 5469.00
95.7048 5246.00
95.77 5187.00
95.8352 5020.00
95.9004 5145.00
95.9656 4920.00
96.0308 4859.00
96.096 4857.00
96.1612 4864.00
96.2264 5070.00
96.2916 4858.00
96.3568 4915.00
96.422 4898.00
96.4872 4854.00
96.5524 4868.00
96.6176 4953.00
96.6828 4957.00
96.748 4782.00
96.8132 4834.00
96.8784 5043.00
96.9436 4858.00
97.0088 4822.00
97.074 4827.00
97.1392 4829.00
97.2044 4880.00
97.2696 4945.00
97.3348 4965.00
97.4 4950.00
97.4652 4930.00
97.5304 4934.00
97.5956 4976.00
97.6608 4793.00
97.726 4877.00
97.7912 4863.00
97.8564 4740.00
97.9216 4729.00
97.9868 4950.00
98.052 4856.00
98.1172 4767.00
98.1824 4785.00
98.2476 4864.00
98.3128 4911.00
98.378 4957.00
98.4432 4930.00
98.5084 5124.00
98.5736 4829.00
98.6388 4879.00
98.704 4892.00
98.7692 4878.00
98.8344 4937.00
98.8996 4972.00
98.9648 5089.00
99.03 5018.00
99.0952 5059.00
99.1604 5059.00
99.2256 4984.00
99.2908 5074.00
99.356 5025.00
99.4212 5045.00
99.4864 4973.00
99.5516 4981.00
99.6168 5024.00
99.682 4990.00
99.7472 4907.00
99.8124 4920.00
99.8776 4962.00
99.9428 4950.00
100.008 4995.00
100.073 4992.00
100.095 4958.00