File: data/xrd_creation/results/PG_2051-1.xy
9.903433 2546.00
9.968632 2555.00
10.0338 2526.00
10.099 2348.00
10.1642 2407.00
10.2294 2447.00
10.2946 2347.00
10.3598 2347.00
10.425 2386.00
10.4902 2270.00
10.5554 2338.00
10.6206 2254.00
10.6858 2214.00
10.751 2303.00
10.8162 2301.00
10.8814 2276.00
10.9466 2208.00
11.0118 2231.00
11.077 2098.00
11.1422 2179.00
11.2074 2210.00
11.2726 2090.00
11.3378 2061.00
11.403 2204.00
11.4682 2108.00
11.5334 2039.00
11.5986 2081.00
11.6638 2120.00
11.729 1953.00
11.7942 1955.00
11.8594 1998.00
11.9246 2005.00
11.9898 2014.00
12.055 1985.00
12.1202 1876.00
12.1854 1910.00
12.2506 1884.00
12.3158 1944.00
12.381 1896.00
12.4462 1853.00
12.5114 1928.00
12.5766 1852.00
12.6418 1836.00
12.707 1911.00
12.7722 1873.00
12.8374 1878.00
12.9026 1811.00
12.9678 1773.00
13.033 1801.00
13.0982 1756.00
13.1634 1810.00
13.2286 1719.00
13.2938 1816.00
13.359 1712.00
13.4242 1805.00
13.4894 1700.00
13.5546 1685.00
13.6198 1669.00
13.685 1641.00
13.7502 1755.00
13.8154 1678.00
13.8805 1669.00
13.9457 1751.00
14.0109 1703.00
14.0761 1704.00
14.1413 1757.00
14.2065 1727.00
14.2717 1809.00
14.3369 1782.00
14.4021 1875.00
14.4673 1722.00
14.5325 1811.00
14.5977 1893.00
14.6629 1837.00
14.7281 1827.00
14.7933 1721.00
14.8585 1678.00
14.9237 1741.00
14.9889 1705.00
15.0541 1671.00
15.1193 1623.00
15.1845 1632.00
15.2497 1564.00
15.3149 1526.00
15.3801 1579.00
15.4453 1575.00
15.5105 1522.00
15.5757 1600.00
15.6409 1578.00
15.7061 1500.00
15.7713 1540.00
15.8365 1486.00
15.9017 1538.00
15.9669 1485.00
16.0321 1496.00
16.0973 1472.00
16.1625 1427.00
16.2277 1454.00
16.2929 1443.00
16.3581 1486.00
16.4233 1487.00
16.4885 1432.00
16.5537 1413.00
16.6189 1434.00
16.6841 1407.00
16.7493 1421.00
16.8145 1353.00
16.8797 1362.00
16.9449 1369.00
17.0101 1391.00
17.0753 1412.00
17.1405 1540.00
17.2057 1386.00
17.2709 1382.00
17.3361 1457.00
17.4013 1544.00
17.4665 1643.00
17.5317 1915.00
17.5969 2590.00
17.6621 3383.00
17.7273 4223.00
17.7925 2743.00
17.8577 1616.00
17.9229 1387.00
17.9881 1308.00
18.0533 1329.00
18.1185 1361.00
18.1837 1288.00
18.2489 1340.00
18.3141 1355.00
18.3793 1299.00
18.4445 1252.00
18.5097 1296.00
18.5749 1281.00
18.6401 1292.00
18.7052 1242.00
18.7704 1213.00
18.8356 1292.00
18.9008 1254.00
18.966 1229.00
19.0312 1216.00
19.0964 1255.00
19.1616 1180.00
19.2268 1242.00
19.292 1200.00
19.3572 1228.00
19.4224 1215.00
19.4876 1238.00
19.5528 1272.00
19.618 1272.00
19.6832 1263.00
19.7484 1289.00
19.8136 1287.00
19.8788 1315.00
19.944 1276.00
20.0092 1283.00
20.0744 1229.00
20.1396 1272.00
20.2048 1112.00
20.27 1121.00
20.3352 1161.00
20.4004 1115.00
20.4656 1093.00
20.5308 1170.00
20.596 1155.00
20.6612 1125.00
20.7264 1173.00
20.7916 1251.00
20.8568 1260.00
20.922 1305.00
20.9872 1343.00
21.0524 1306.00
21.1176 1297.00
21.1828 1272.00
21.248 1163.00
21.3132 1130.00
21.3784 1104.00
21.4436 1180.00
21.5088 1091.00
21.574 1130.00
21.6392 1034.00
21.7044 1174.00
21.7696 1113.00
21.8348 1235.00
21.9 1108.00
21.9652 1028.00
22.0304 1062.00
22.0956 1031.00
22.1608 1063.00
22.226 1019.00
22.2912 1034.00
22.3564 1100.00
22.4216 1047.00
22.4868 1025.00
22.552 1126.00
22.6172 1035.00
22.6824 975.00
22.7476 1076.00
22.8128 1049.00
22.878 1017.00
22.9432 976.00
23.0084 1017.00
23.0736 969.00
23.1388 1009.00
23.204 987.00
23.2692 1020.00
23.3344 1045.00
23.3996 1069.00
23.4647 1105.00
23.5299 1134.00
23.5951 1091.00
23.6603 1206.00
23.7255 1221.00
23.7907 1271.00
23.8559 1537.00
23.9211 2130.00
23.9863 3497.00
24.0515 7143.00
24.1167 14101.00
24.1819 19759.00
24.2471 11075.00
24.3123 2824.00
24.3775 1400.00
24.4427 1265.00
24.5079 1170.00
24.5731 1136.00
24.6383 1022.00
24.7035 1000.00
24.7687 1008.00
24.8339 921.00
24.8991 960.00
24.9643 984.00
25.0295 962.00
25.0947 900.00
25.1599 986.00
25.2251 973.00
25.2903 928.00
25.3555 971.00
25.4207 920.00
25.4859 937.00
25.5511 960.00
25.6163 932.00
25.6815 1018.00
25.7467 939.00
25.8119 944.00
25.8771 914.00
25.9423 978.00
26.0075 960.00
26.0727 978.00
26.1379 950.00
26.2031 973.00
26.2683 936.00
26.3335 922.00
26.3987 927.00
26.4639 990.00
26.5291 997.00
26.5943 963.00
26.6595 944.00
26.7247 955.00
26.7899 926.00
26.8551 905.00
26.9203 888.00
26.9855 895.00
27.0507 936.00
27.1159 909.00
27.1811 931.00
27.2463 915.00
27.3115 894.00
27.3767 932.00
27.4419 930.00
27.5071 969.00
27.5723 987.00
27.6375 1010.00
27.7027 1095.00
27.7679 1024.00
27.8331 1118.00
27.8983 1155.00
27.9635 1227.00
28.0287 1301.00
28.0939 1289.00
28.1591 1281.00
28.2243 1269.00
28.2894 1191.00
28.3546 1216.00
28.4198 1296.00
28.485 1300.00
28.5502 1444.00
28.6154 1423.00
28.6806 1484.00
28.7458 1576.00
28.811 1602.00
28.8762 1669.00
28.9414 1717.00
29.0066 1722.00
29.0718 1541.00
29.137 1577.00
29.2022 1445.00
29.2674 1339.00
29.3326 1245.00
29.3978 1119.00
29.463 1105.00
29.5282 1082.00
29.5934 968.00
29.6586 1001.00
29.7238 981.00
29.789 1124.00
29.8542 1418.00
29.9194 2267.00
29.9846 3169.00
30.0498 2507.00
30.115 1426.00
30.1802 983.00
30.2454 969.00
30.3106 982.00
30.3758 945.00
30.441 934.00
30.5062 1002.00
30.5714 1038.00
30.6366 1126.00
30.7018 1271.00
30.767 1530.00
30.8322 2484.00
30.8974 5327.00
30.9626 11593.00
31.0278 18864.00
31.093 11655.00
31.1582 4210.00
31.2234 1462.00
31.2886 1227.00
31.3538 1192.00
31.419 1131.00
31.4842 1122.00
31.5494 1032.00
31.6146 1103.00
31.6798 1244.00
31.745 1369.00
31.8102 1635.00
31.8754 2596.00
31.9406 4831.00
32.0058 9612.00
32.071 14819.00
32.1362 11086.00
32.2014 5308.00
32.2666 2193.00
32.3318 1523.00
32.397 1248.00
32.4622 1075.00
32.5274 1006.00
32.5926 1009.00
32.6578 959.00
32.723 978.00
32.7882 971.00
32.8534 991.00
32.9186 958.00
32.9838 1008.00
33.0489 1020.00
33.1141 1144.00
33.1793 1178.00
33.2445 1088.00
33.3097 1101.00
33.3749 1022.00
33.4401 1043.00
33.5053 1031.00
33.5705 1036.00
33.6357 972.00
33.7009 1031.00
33.7661 1042.00
33.8313 987.00
33.8965 1005.00
33.9617 1028.00
34.0269 1166.00
34.0921 1288.00
34.1573 1935.00
34.2225 3359.00
34.2877 5507.00
34.3529 4111.00
34.4181 2735.00
34.4833 1890.00
34.5485 2486.00
34.6137 4552.00
34.6789 8566.00
34.7441 11535.00
34.8093 7590.00
34.8745 3685.00
34.9397 1723.00
35.0049 1410.00
35.0701 1218.00
35.1353 1155.00
35.2005 1046.00
35.2657 1043.00
35.3309 1048.00
35.3961 1341.00
35.4613 1812.00
35.5265 2390.00
35.5917 1672.00
35.6569 1203.00
35.7221 952.00
35.7873 898.00
35.8525 936.00
35.9177 966.00
35.9829 1077.00
36.0481 1113.00
36.1133 1203.00
36.1785 1241.00
36.2437 1603.00
36.3089 2310.00
36.3741 4102.00
36.4393 8964.00
36.5045 18170.00
36.5697 24476.00
36.6349 15860.00
36.7001 7859.00
36.7653 2764.00
36.8305 1656.00
36.8957 1328.00
36.9609 1153.00
37.0261 1077.00
37.0913 960.00
37.1565 866.00
37.2217 768.00
37.2869 841.00
37.3521 803.00
37.4173 824.00
37.4825 719.00
37.5477 781.00
37.6129 743.00
37.6781 753.00
37.7433 742.00
37.8085 742.00
37.8736 715.00
37.9388 709.00
38.004 700.00
38.0692 670.00
38.1344 701.00
38.1996 706.00
38.2648 761.00
38.33 849.00
38.3952 1158.00
38.4604 1399.00
38.5256 1218.00
38.5908 1297.00
38.656 1910.00
38.7212 3024.00
38.7864 2204.00
38.8516 1587.00
38.9168 775.00
38.982 686.00
39.0472 616.00
39.1124 640.00
39.1776 597.00
39.2428 603.00
39.308 665.00
39.3732 651.00
39.4384 565.00
39.5036 641.00
39.5688 599.00
39.634 586.00
39.6992 586.00
39.7644 617.00
39.8296 615.00
39.8948 621.00
39.96 645.00
40.0252 609.00
40.0904 629.00
40.1556 578.00
40.2208 573.00
40.286 604.00
40.3512 593.00
40.4164 593.00
40.4816 583.00
40.5468 585.00
40.612 575.00
40.6772 664.00
40.7424 710.00
40.8076 931.00
40.8728 1346.00
40.938 1450.00
41.0032 1118.00
41.0684 802.00
41.1336 623.00
41.1988 584.00
41.264 615.00
41.3292 666.00
41.3944 618.00
41.4596 636.00
41.5248 636.00
41.59 593.00
41.6552 552.00
41.7204 578.00
41.7856 569.00
41.8508 567.00
41.916 569.00
41.9812 582.00
42.0464 585.00
42.1116 546.00
42.1768 574.00
42.242 554.00
42.3072 556.00
42.3724 634.00
42.4376 580.00
42.5028 553.00
42.568 535.00
42.6332 531.00
42.6983 530.00
42.7635 524.00
42.8287 492.00
42.8939 508.00
42.9591 545.00
43.0243 513.00
43.0895 543.00
43.1547 506.00
43.2199 518.00
43.2851 533.00
43.3503 491.00
43.4155 500.00
43.4807 526.00
43.5459 491.00
43.6111 495.00
43.6763 551.00
43.7415 483.00
43.8067 500.00
43.8719 491.00
43.9371 494.00
44.0023 502.00
44.0675 537.00
44.1327 540.00
44.1979 533.00
44.2631 459.00
44.3283 519.00
44.3935 526.00
44.4587 521.00
44.5239 506.00
44.5891 552.00
44.6543 482.00
44.7195 531.00
44.7847 513.00
44.8499 507.00
44.9151 508.00
44.9803 529.00
45.0455 532.00
45.1107 523.00
45.1759 498.00
45.2411 594.00
45.3063 521.00
45.3715 542.00
45.4367 572.00
45.5019 611.00
45.5671 567.00
45.6323 601.00
45.6975 595.00
45.7627 649.00
45.8279 708.00
45.8931 961.00
45.9583 1703.00
46.0235 2716.00
46.0887 1933.00
46.1539 1703.00
46.2191 941.00
46.2843 673.00
46.3495 682.00
46.4147 742.00
46.4799 888.00
46.5451 1239.00
46.6103 2036.00
46.6755 4913.00
46.7407 9167.00
46.8059 6007.00
46.8711 4995.00
46.9363 2077.00
47.0015 914.00
47.0667 836.00
47.1319 731.00
47.1971 687.00
47.2623 706.00
47.3275 736.00
47.3927 681.00
47.4579 749.00
47.523 841.00
47.5882 976.00
47.6534 1414.00
47.7186 2486.00
47.7838 4675.00
47.849 5783.00
47.9142 4385.00
47.9794 3370.00
48.0446 1723.00
48.1098 1037.00
48.175 779.00
48.2402 684.00
48.3054 672.00
48.3706 566.00
48.4358 558.00
48.501 554.00
48.5662 535.00
48.6314 535.00
48.6966 549.00
48.7618 509.00
48.827 495.00
48.8922 500.00
48.9574 564.00
49.0226 613.00
49.0878 739.00
49.153 721.00
49.2182 587.00
49.2834 609.00
49.3486 495.00
49.4138 501.00
49.479 467.00
49.5442 470.00
49.6094 464.00
49.6746 463.00
49.7398 476.00
49.805 470.00
49.8702 476.00
49.9354 497.00
50.0006 477.00
50.0658 498.00
50.131 412.00
50.1962 438.00
50.2614 428.00
50.3266 422.00
50.3918 469.00
50.457 473.00
50.5222 467.00
50.5874 474.00
50.6526 450.00
50.7178 423.00
50.783 452.00
50.8482 431.00
50.9134 485.00
50.9786 448.00
51.0438 456.00
51.109 442.00
51.1742 445.00
51.2394 448.00
51.3046 408.00
51.3698 487.00
51.435 443.00
51.5002 458.00
51.5654 435.00
51.6306 482.00
51.6958 445.00
51.761 416.00
51.8262 439.00
51.8914 424.00
51.9566 412.00
52.0218 476.00
52.087 399.00
52.1522 373.00
52.2174 441.00
52.2826 474.00
52.3477 422.00
52.4129 477.00
52.4781 616.00
52.5433 642.00
52.6085 561.00
52.6737 599.00
52.7389 510.00
52.8041 488.00
52.8693 481.00
52.9345 455.00
52.9997 431.00
53.0649 433.00
53.1301 468.00
53.1953 440.00
53.2605 447.00
53.3257 431.00
53.3909 446.00
53.4561 444.00
53.5213 435.00
53.5865 432.00
53.6517 443.00
53.7169 427.00
53.7821 453.00
53.8473 476.00
53.9125 414.00
53.9777 488.00
54.0429 454.00
54.1081 455.00
54.1733 563.00
54.2385 650.00
54.3037 541.00
54.3689 531.00
54.4341 557.00
54.4993 510.00
54.5645 467.00
54.6297 472.00
54.6949 469.00
54.7601 526.00
54.8253 488.00
54.8905 556.00
54.9557 586.00
55.0209 595.00
55.0861 640.00
55.1513 684.00
55.2165 973.00
55.2817 1696.00
55.3469 1995.00
55.4121 1281.00
55.4773 1312.00
55.5425 851.00
55.6077 611.00
55.6729 595.00
55.7381 572.00
55.8033 571.00
55.8685 560.00
55.9337 555.00
55.9989 577.00
56.0641 565.00
56.1293 633.00
56.1945 598.00
56.2597 567.00
56.3249 611.00
56.3901 654.00
56.4553 712.00
56.5205 834.00
56.5857 997.00
56.6509 1278.00
56.7161 2140.00
56.7813 4074.00
56.8465 7324.00
56.9117 6231.00
56.9769 4382.00
57.042 3925.00
57.1073 1729.00
57.1724 991.00
57.2376 773.00
57.3028 641.00
57.368 599.00
57.4332 579.00
57.4984 518.00
57.5636 505.00
57.6288 514.00
57.694 530.00
57.7592 516.00
57.8244 529.00
57.8896 493.00
57.9548 506.00
58.02 475.00
58.0852 504.00
58.1504 501.00
58.2156 536.00
58.2808 524.00
58.346 538.00
58.4112 560.00
58.4764 677.00
58.5416 854.00
58.6068 1530.00
58.672 1728.00
58.7372 1031.00
58.8024 1209.00
58.8676 817.00
58.9328 822.00
58.998 1280.00
59.0632 2020.00
59.1284 1391.00
59.1936 1171.00
59.2588 1121.00
59.324 610.00
59.3892 515.00
59.4544 479.00
59.5196 454.00
59.5848 491.00
59.65 421.00
59.7152 419.00
59.7804 430.00
59.8456 424.00
59.9108 477.00
59.976 540.00
60.0412 737.00
60.1064 787.00
60.1716 598.00
60.2368 603.00
60.302 523.00
60.3672 498.00
60.4324 492.00
60.4976 450.00
60.5628 457.00
60.628 480.00
60.6932 475.00
60.7584 480.00
60.8236 438.00
60.8888 516.00
60.954 486.00
61.0192 496.00
61.0844 439.00
61.1496 466.00
61.2148 444.00
61.28 474.00
61.3452 496.00
61.4104 457.00
61.4756 495.00
61.5408 478.00
61.606 429.00
61.6712 447.00
61.7364 477.00
61.8016 508.00
61.8667 554.00
61.932 520.00
61.9971 472.00
62.0623 496.00
62.1275 486.00
62.1927 462.00
62.2579 458.00
62.3231 471.00
62.3883 478.00
62.4535 497.00
62.5187 501.00
62.5839 513.00
62.6491 615.00
62.7143 608.00
62.7795 710.00
62.8447 812.00
62.9099 1086.00
62.9751 1807.00
63.0403 3541.00
63.1055 6241.00
63.1707 5255.00
63.2359 3593.00
63.3011 3681.00
63.3663 2073.00
63.4315 1051.00
63.4967 723.00
63.5619 678.00
63.6271 571.00
63.6923 531.00
63.7575 586.00
63.8227 656.00
63.8879 641.00
63.9531 622.00
64.0183 739.00
64.0835 810.00
64.1487 1102.00
64.2139 1761.00
64.2791 1267.00
64.3443 890.00
64.4095 1083.00
64.4747 679.00
64.5399 468.00
64.6051 485.00
64.6703 447.00
64.7355 411.00
64.8007 398.00
64.8659 412.00
64.9311 403.00
64.9963 425.00
65.0615 435.00
65.1267 461.00
65.1919 458.00
65.2571 456.00
65.3223 395.00
65.3875 457.00
65.4527 476.00
65.5179 492.00
65.5831 477.00
65.6483 474.00
65.7135 477.00
65.7787 463.00
65.8439 465.00
65.9091 425.00
65.9743 429.00
66.0395 410.00
66.1047 441.00
66.1699 478.00
66.2351 454.00
66.3003 489.00
66.3655 483.00
66.4307 598.00
66.4959 681.00
66.561 1029.00
66.6263 1366.00
66.6915 1001.00
66.7566 830.00
66.8218 882.00
66.887 822.00
66.9522 587.00
67.0174 458.00
67.0826 493.00
67.1478 450.00
67.213 417.00
67.2782 401.00
67.3434 422.00
67.4086 433.00
67.4738 455.00
67.539 456.00
67.6042 481.00
67.6694 497.00
67.7346 553.00
67.7998 626.00
67.865 655.00
67.9302 834.00
67.9954 1141.00
68.0606 1763.00
68.1258 3294.00
68.191 5346.00
68.2562 3974.00
68.3214 2776.00
68.3866 3049.00
68.4518 2103.00
68.517 1026.00
68.5822 752.00
68.6474 679.00
68.7126 587.00
68.7778 552.00
68.843 536.00
68.9082 589.00
68.9734 557.00
69.0386 584.00
69.1038 674.00
69.169 943.00
69.2342 1582.00
69.2994 2452.00
69.3646 2711.00
69.4298 1583.00
69.495 1654.00
69.5602 1618.00
69.6254 981.00
69.6906 664.00
69.7558 681.00
69.821 846.00
69.8862 1440.00
69.9514 2039.00
70.0166 955.00
70.0818 962.00
70.147 1143.00
70.2122 654.00
70.2774 471.00
70.3426 451.00
70.4078 405.00
70.473 405.00
70.5382 403.00
70.6034 367.00
70.6686 440.00
70.7338 415.00
70.799 394.00
70.8642 420.00
70.9294 377.00
70.9946 375.00
71.0598 381.00
71.125 397.00
71.1902 351.00
71.2554 372.00
71.3205 376.00
71.3858 347.00
71.451 382.00
71.5162 420.00
71.5813 447.00
71.6465 464.00
71.7117 583.00
71.7769 846.00
71.8421 707.00
71.9073 568.00
71.9725 611.00
72.0377 624.00
72.1029 407.00
72.1681 399.00
72.2333 372.00
72.2985 397.00
72.3637 386.00
72.4289 384.00
72.4941 366.00
72.5593 390.00
72.6245 441.00
72.6897 514.00
72.7549 677.00
72.8201 736.00
72.8853 642.00
72.9505 527.00
73.0157 621.00
73.0809 516.00
73.1461 469.00
73.2113 379.00
73.2765 395.00
73.3417 391.00
73.4069 382.00
73.4721 362.00
73.5373 359.00
73.6025 341.00
73.6677 415.00
73.7329 397.00
73.7981 443.00
73.8633 370.00
73.9285 380.00
73.9937 410.00
74.0589 399.00
74.1241 380.00
74.1893 408.00
74.2545 466.00
74.3197 480.00
74.3849 482.00
74.4501 458.00
74.5153 576.00
74.5805 694.00
74.6457 1244.00
74.7109 1543.00
74.7761 756.00
74.8413 740.00
74.9065 955.00
74.9717 648.00
75.0369 398.00
75.1021 440.00
75.1673 393.00
75.2325 390.00
75.2977 388.00
75.3629 397.00
75.4281 342.00
75.4933 375.00
75.5585 372.00
75.6237 375.00
75.6889 362.00
75.7541 388.00
75.8193 422.00
75.8845 440.00
75.9497 451.00
76.0149 426.00
76.0801 423.00
76.1452 410.00
76.2104 441.00
76.2756 400.00
76.3409 366.00
76.406 380.00
76.4712 443.00
76.5364 403.00
76.6016 376.00
76.6668 445.00
76.732 454.00
76.7972 487.00
76.8624 603.00
76.9276 596.00
76.9928 527.00
77.058 697.00
77.1232 935.00
77.1884 1138.00
77.2536 884.00
77.3188 701.00
77.384 781.00
77.4492 720.00
77.5144 521.00
77.5796 433.00
77.6448 394.00
77.71 377.00
77.7752 367.00
77.8404 354.00
77.9056 362.00
77.9708 350.00
78.036 382.00
78.1012 333.00
78.1664 376.00
78.2316 394.00
78.2968 388.00
78.362 355.00
78.4272 357.00
78.4924 373.00
78.5576 367.00
78.6228 366.00
78.688 397.00
78.7532 358.00
78.8184 393.00
78.8836 362.00
78.9488 343.00
79.014 367.00
79.0792 385.00
79.1444 384.00
79.2096 384.00
79.2748 430.00
79.34 396.00
79.4052 432.00
79.4704 466.00
79.5356 580.00
79.6008 715.00
79.666 1122.00
79.7312 1326.00
79.7964 777.00
79.8616 731.00
79.9268 1012.00
79.992 1110.00
80.0572 1230.00
80.1224 1048.00
80.1876 623.00
80.2528 687.00
80.318 840.00
80.3832 556.00
80.4484 413.00
80.5136 367.00
80.5788 366.00
80.644 378.00
80.7092 391.00
80.7744 355.00
80.8396 358.00
80.9048 390.00
80.9699 361.00
81.0351 384.00
81.1003 411.00
81.1655 374.00
81.2307 381.00
81.2959 343.00
81.3611 398.00
81.4263 418.00
81.4915 491.00
81.5567 575.00
81.6219 770.00
81.6871 658.00
81.7523 659.00
81.8175 981.00
81.8827 1083.00
81.9479 582.00
82.0131 554.00
82.0783 642.00
82.1435 531.00
82.2087 428.00
82.2739 358.00
82.3391 362.00
82.4043 365.00
82.4695 418.00
82.5347 469.00
82.5999 380.00
82.6651 366.00
82.7303 367.00
82.7955 402.00
82.8607 355.00
82.9259 361.00
82.9911 366.00
83.0563 345.00
83.1215 308.00
83.1867 294.00
83.2519 308.00
83.3171 317.00
83.3823 343.00
83.4475 317.00
83.5127 325.00
83.5779 340.00
83.6431 373.00
83.7083 385.00
83.7735 384.00
83.8387 339.00
83.9039 335.00
83.9691 354.00
84.0343 358.00
84.0995 315.00
84.1647 290.00
84.2299 307.00
84.2951 305.00
84.3603 311.00
84.4255 336.00
84.4907 315.00
84.5559 330.00
84.6211 301.00
84.6863 309.00
84.7515 302.00
84.8167 355.00
84.8819 334.00
84.9471 370.00
85.0123 311.00
85.0775 329.00
85.1427 330.00
85.2079 312.00
85.2731 314.00
85.3383 357.00
85.4035 333.00
85.4687 341.00
85.5339 371.00
85.5991 516.00
85.6643 696.00
85.7295 516.00
85.7946 414.00
85.8598 417.00
85.925 485.00
85.9903 447.00
86.0554 361.00
86.1206 333.00
86.1858 336.00
86.251 330.00
86.3162 297.00
86.3814 330.00
86.4466 313.00
86.5118 328.00
86.577 308.00
86.6422 305.00
86.7074 318.00
86.7726 338.00
86.8378 356.00
86.903 302.00
86.9682 310.00
87.0334 337.00
87.0986 408.00
87.1638 347.00
87.229 330.00
87.2942 325.00
87.3594 370.00
87.4246 293.00
87.4898 329.00
87.555 323.00
87.6202 344.00
87.6854 322.00
87.7506 321.00
87.8158 319.00
87.881 327.00
87.9462 283.00
88.0114 315.00
88.0766 312.00
88.1418 340.00
88.207 291.00
88.2722 326.00
88.3374 303.00
88.4026 325.00
88.4678 288.00
88.533 319.00
88.5982 346.00
88.6634 303.00
88.7286 360.00
88.7938 326.00
88.859 295.00
88.9242 338.00
88.9894 326.00
89.0546 359.00
89.1198 364.00
89.185 341.00
89.2502 378.00
89.3154 378.00
89.3806 413.00
89.4458 458.00
89.511 421.00
89.5762 507.00
89.6414 697.00
89.7066 942.00
89.7718 1451.00
89.837 1786.00
89.9022 1229.00
89.9674 872.00
90.0326 907.00
90.0978 1103.00
90.163 860.00
90.2282 545.00
90.2934 441.00
90.3586 407.00
90.4238 350.00
90.489 345.00
90.5542 296.00
90.6193 346.00
90.6845 338.00
90.7497 361.00
90.8149 335.00
90.8801 325.00
90.9453 336.00
91.0105 343.00
91.0757 330.00
91.1409 318.00
91.2061 342.00
91.2713 284.00
91.3365 305.00
91.4017 302.00
91.4669 348.00
91.5321 297.00
91.5973 319.00
91.6625 301.00
91.7277 323.00
91.7929 320.00
91.8581 293.00
91.9233 300.00
91.9885 321.00
92.0537 326.00
92.1189 321.00
92.1841 270.00
92.2493 358.00
92.3145 341.00
92.3797 315.00
92.4449 345.00
92.5101 325.00
92.5753 323.00
92.6405 350.00
92.7057 357.00
92.7709 384.00
92.8361 448.00
92.9013 573.00
92.9665 764.00
93.0317 748.00
93.0969 499.00
93.1621 505.00
93.2273 560.00
93.2925 584.00
93.3577 475.00
93.4229 378.00
93.4881 358.00
93.5533 382.00
93.6185 364.00
93.6837 308.00
93.7489 314.00
93.8141 371.00
93.8793 315.00
93.9445 345.00
94.0097 382.00
94.0749 314.00
94.1401 340.00
94.2053 363.00
94.2705 366.00
94.3357 401.00
94.4009 487.00
94.4661 455.00
94.5313 395.00
94.5965 384.00
94.6617 392.00
94.7269 420.00
94.7921 370.00
94.8573 383.00
94.9225 351.00
94.9877 409.00
95.0529 428.00
95.1181 394.00
95.1833 483.00
95.2485 569.00
95.3137 777.00
95.3789 1249.00
95.444 1946.00
95.5092 2179.00
95.5744 1401.00
95.6396 979.00
95.7048 980.00
95.77 1284.00
95.8352 1236.00
95.9004 832.00
95.9656 565.00
96.0308 416.00
96.096 395.00
96.1612 391.00
96.2264 380.00
96.2916 349.00
96.3568 390.00
96.422 450.00
96.4872 530.00
96.5524 605.00
96.6176 508.00
96.6828 410.00
96.748 421.00
96.8132 457.00
96.8784 557.00
96.9436 481.00
97.0088 341.00
97.074 341.00
97.1392 395.00
97.2044 382.00
97.2696 363.00
97.3348 336.00
97.4 337.00
97.4652 322.00
97.5304 324.00
97.5956 295.00
97.6608 311.00
97.726 333.00
97.7912 337.00
97.8564 331.00
97.9216 364.00
97.9868 313.00
98.052 321.00
98.1172 339.00
98.1824 368.00
98.2476 355.00
98.3128 353.00
98.378 397.00
98.4432 404.00
98.5084 388.00
98.5736 429.00
98.6388 519.00
98.704 677.00
98.7692 987.00
98.8344 1086.00
98.8996 780.00
98.9648 615.00
99.03 642.00
99.0952 681.00
99.1604 842.00
99.2256 676.00
99.2908 612.00
99.356 645.00
99.4212 522.00
99.4864 483.00
99.5516 496.00
99.6168 671.00
99.682 1028.00
99.7472 979.00
99.8124 554.00
99.8776 460.00
99.9428 514.00
100.008 569.00
100.073 676.00
100.095 533.00