File: data/xrd_creation/results/PG_2434-1.xy
9.903433 2746.00
9.968632 2618.00
10.0338 2644.00
10.099 2696.00
10.1642 2608.00
10.2294 2716.00
10.2946 2642.00
10.3598 2609.00
10.425 2517.00
10.4902 2617.00
10.5554 2603.00
10.6206 2468.00
10.6858 2426.00
10.751 2543.00
10.8162 2489.00
10.8814 2420.00
10.9466 2429.00
11.0118 2380.00
11.077 2395.00
11.1422 2408.00
11.2074 2334.00
11.2726 2324.00
11.3378 2365.00
11.403 2265.00
11.4682 2322.00
11.5334 2320.00
11.5986 2248.00
11.6638 2267.00
11.729 2298.00
11.7942 2311.00
11.8594 2188.00
11.9246 2230.00
11.9898 2164.00
12.055 2166.00
12.1202 2203.00
12.1854 2227.00
12.2506 2115.00
12.3158 2121.00
12.381 2151.00
12.4462 2112.00
12.5114 2135.00
12.5766 2143.00
12.6418 2035.00
12.707 1992.00
12.7722 2078.00
12.8374 1983.00
12.9026 2001.00
12.9678 1991.00
13.033 2001.00
13.0982 2051.00
13.1634 2030.00
13.2286 2105.00
13.2938 1950.00
13.359 2002.00
13.4242 2020.00
13.4894 1987.00
13.5546 2055.00
13.6198 2108.00
13.685 1993.00
13.7502 1989.00
13.8154 2067.00
13.8805 2056.00
13.9457 2071.00
14.0109 2008.00
14.0761 2057.00
14.1413 2017.00
14.2065 1986.00
14.2717 2009.00
14.3369 2105.00
14.4021 1955.00
14.4673 1980.00
14.5325 1967.00
14.5977 1925.00
14.6629 2032.00
14.7281 2069.00
14.7933 1984.00
14.8585 2011.00
14.9237 2015.00
14.9889 1899.00
15.0541 2064.00
15.1193 1967.00
15.1845 2031.00
15.2497 1954.00
15.3149 1956.00
15.3801 1963.00
15.4453 2018.00
15.5105 2030.00
15.5757 2051.00
15.6409 1987.00
15.7061 2019.00
15.7713 1974.00
15.8365 1999.00
15.9017 1998.00
15.9669 2056.00
16.0321 2105.00
16.0973 2071.00
16.1625 2113.00
16.2277 2161.00
16.2929 2261.00
16.3581 2365.00
16.4233 2680.00
16.4885 3238.00
16.5537 4036.00
16.6189 4156.00
16.6841 3950.00
16.7493 3423.00
16.8145 3372.00
16.8797 3052.00
16.9449 2643.00
17.0101 2486.00
17.0753 2296.00
17.1405 2219.00
17.2057 2289.00
17.2709 2080.00
17.3361 2056.00
17.4013 2102.00
17.4665 2123.00
17.5317 2026.00
17.5969 2038.00
17.6621 2070.00
17.7273 2100.00
17.7925 2099.00
17.8577 2069.00
17.9229 2088.00
17.9881 2022.00
18.0533 2051.00
18.1185 2078.00
18.1837 2128.00
18.2489 2236.00
18.3141 2266.00
18.3793 2098.00
18.4445 2134.00
18.5097 1951.00
18.5749 2023.00
18.6401 1973.00
18.7052 2036.00
18.7704 1935.00
18.8356 1989.00
18.9008 1975.00
18.966 1966.00
19.0312 1792.00
19.0964 1984.00
19.1616 1889.00
19.2268 1901.00
19.292 1880.00
19.3572 1882.00
19.4224 1959.00
19.4876 1880.00
19.5528 1890.00
19.618 1829.00
19.6832 1830.00
19.7484 1899.00
19.8136 1900.00
19.8788 1902.00
19.944 1900.00
20.0092 1930.00
20.0744 1978.00
20.1396 1921.00
20.2048 1920.00
20.27 1903.00
20.3352 1916.00
20.4004 1889.00
20.4656 1794.00
20.5308 1830.00
20.596 1839.00
20.6612 1779.00
20.7264 1752.00
20.7916 1740.00
20.8568 1793.00
20.922 1782.00
20.9872 1853.00
21.0524 1826.00
21.1176 1863.00
21.1828 1923.00
21.248 1897.00
21.3132 1933.00
21.3784 1860.00
21.4436 1872.00
21.5088 1843.00
21.574 1849.00
21.6392 1872.00
21.7044 1966.00
21.7696 2012.00
21.8348 1935.00
21.9 1975.00
21.9652 2264.00
22.0304 2448.00
22.0956 2849.00
22.1608 3349.00
22.226 3787.00
22.2912 3986.00
22.3564 3514.00
22.4216 2965.00
22.4868 2504.00
22.552 2126.00
22.6172 1981.00
22.6824 1953.00
22.7476 1942.00
22.8128 1894.00
22.878 1981.00
22.9432 2066.00
23.0084 2218.00
23.0736 2442.00
23.1388 2808.00
23.204 3560.00
23.2692 3864.00
23.3344 3475.00
23.3996 3169.00
23.4647 2807.00
23.5299 2743.00
23.5951 2773.00
23.6603 2698.00
23.7255 2320.00
23.7907 1901.00
23.8559 1830.00
23.9211 1857.00
23.9863 1762.00
24.0515 1819.00
24.1167 1802.00
24.1819 1742.00
24.2471 1785.00
24.3123 1853.00
24.3775 1887.00
24.4427 1987.00
24.5079 2028.00
24.5731 1958.00
24.6383 2024.00
24.7035 2294.00
24.7687 2557.00
24.8339 2819.00
24.8991 2912.00
24.9643 2572.00
25.0295 2427.00
25.0947 2176.00
25.1599 1946.00
25.2251 1820.00
25.2903 1817.00
25.3555 1734.00
25.4207 1771.00
25.4859 1785.00
25.5511 1745.00
25.6163 1698.00
25.6815 1792.00
25.7467 1718.00
25.8119 1827.00
25.8771 1708.00
25.9423 1731.00
26.0075 1735.00
26.0727 1749.00
26.1379 1661.00
26.2031 1683.00
26.2683 1634.00
26.3335 1698.00
26.3987 1681.00
26.4639 1733.00
26.5291 1685.00
26.5943 1723.00
26.6595 1694.00
26.7247 1705.00
26.7899 1760.00
26.8551 1745.00
26.9203 1693.00
26.9855 1710.00
27.0507 1700.00
27.1159 1747.00
27.1811 1675.00
27.2463 1647.00
27.3115 1618.00
27.3767 1652.00
27.4419 1576.00
27.5071 1639.00
27.5723 1667.00
27.6375 1673.00
27.7027 1531.00
27.7679 1574.00
27.8331 1600.00
27.8983 1609.00
27.9635 1605.00
28.0287 1631.00
28.0939 1640.00
28.1591 1510.00
28.2243 1600.00
28.2894 1630.00
28.3546 1618.00
28.4198 1619.00
28.485 1624.00
28.5502 1636.00
28.6154 1733.00
28.6806 1886.00
28.7458 2209.00
28.811 3182.00
28.8762 4321.00
28.9414 4840.00
29.0066 4166.00
29.0718 3064.00
29.137 2452.00
29.2022 2058.00
29.2674 1873.00
29.3326 1633.00
29.3978 1535.00
29.463 1528.00
29.5282 1450.00
29.5934 1463.00
29.6586 1362.00
29.7238 1418.00
29.789 1404.00
29.8542 1356.00
29.9194 1326.00
29.9846 1398.00
30.0498 1314.00
30.115 1337.00
30.1802 1419.00
30.2454 1447.00
30.3106 1402.00
30.3758 1426.00
30.441 1399.00
30.5062 1397.00
30.5714 1354.00
30.6366 1246.00
30.7018 1276.00
30.767 1266.00
30.8322 1350.00
30.8974 1238.00
30.9626 1231.00
31.0278 1214.00
31.093 1197.00
31.1582 1318.00
31.2234 1147.00
31.2886 1195.00
31.3538 1187.00
31.419 1225.00
31.4842 1270.00
31.5494 1215.00
31.6146 1202.00
31.6798 1226.00
31.745 1250.00
31.8102 1177.00
31.8754 1273.00
31.9406 1138.00
32.0058 1167.00
32.071 1155.00
32.1362 1132.00
32.2014 1211.00
32.2666 1113.00
32.3318 1105.00
32.397 1098.00
32.4622 1049.00
32.5274 1064.00
32.5926 1136.00
32.6578 1091.00
32.723 1077.00
32.7882 1131.00
32.8534 1064.00
32.9186 1084.00
32.9838 1136.00
33.0489 1099.00
33.1141 1090.00
33.1793 1126.00
33.2445 1109.00
33.3097 1175.00
33.3749 1187.00
33.4401 1210.00
33.5053 1349.00
33.5705 1651.00
33.6357 1913.00
33.7009 2169.00
33.7661 2457.00
33.8313 2695.00
33.8965 2783.00
33.9617 2697.00
34.0269 2490.00
34.0921 2256.00
34.1573 2158.00
34.2225 1813.00
34.2877 1576.00
34.3529 1310.00
34.4181 1184.00
34.4833 1139.00
34.5485 1139.00
34.6137 1119.00
34.6789 1082.00
34.7441 1034.00
34.8093 1020.00
34.8745 1032.00
34.9397 923.00
35.0049 1003.00
35.0701 897.00
35.1353 934.00
35.2005 919.00
35.2657 891.00
35.3309 988.00
35.3961 1010.00
35.4613 970.00
35.5265 886.00
35.5917 901.00
35.6569 901.00
35.7221 986.00
35.7873 961.00
35.8525 967.00
35.9177 981.00
35.9829 955.00
36.0481 997.00
36.1133 949.00
36.1785 959.00
36.2437 975.00
36.3089 973.00
36.3741 894.00
36.4393 988.00
36.5045 1021.00
36.5697 1133.00
36.6349 1390.00
36.7001 1727.00
36.7653 2029.00
36.8305 2266.00
36.8957 1983.00
36.9609 1746.00
37.0261 1363.00
37.0913 1175.00
37.1565 1109.00
37.2217 1006.00
37.2869 1044.00
37.3521 962.00
37.4173 896.00
37.4825 862.00
37.5477 927.00
37.6129 897.00
37.6781 898.00
37.7433 934.00
37.8085 1037.00
37.8736 1025.00
37.9388 958.00
38.004 926.00
38.0692 884.00
38.1344 882.00
38.1996 835.00
38.2648 874.00
38.33 826.00
38.3952 930.00
38.4604 881.00
38.5256 864.00
38.5908 930.00
38.656 984.00
38.7212 937.00
38.7864 963.00
38.8516 958.00
38.9168 953.00
38.982 974.00
39.0472 859.00
39.1124 891.00
39.1776 838.00
39.2428 906.00
39.308 802.00
39.3732 804.00
39.4384 830.00
39.5036 825.00
39.5688 834.00
39.634 833.00
39.6992 855.00
39.7644 869.00
39.8296 831.00
39.8948 810.00
39.96 755.00
40.0252 784.00
40.0904 776.00
40.1556 740.00
40.2208 794.00
40.286 758.00
40.3512 785.00
40.4164 733.00
40.4816 804.00
40.5468 730.00
40.612 744.00
40.6772 788.00
40.7424 689.00
40.8076 765.00
40.8728 706.00
40.938 726.00
41.0032 728.00
41.0684 755.00
41.1336 761.00
41.1988 730.00
41.264 758.00
41.3292 728.00
41.3944 725.00
41.4596 768.00
41.5248 701.00
41.59 732.00
41.6552 724.00
41.7204 755.00
41.7856 723.00
41.8508 714.00
41.916 674.00
41.9812 712.00
42.0464 769.00
42.1116 712.00
42.1768 675.00
42.242 699.00
42.3072 653.00
42.3724 716.00
42.4376 704.00
42.5028 713.00
42.568 670.00
42.6332 715.00
42.6983 725.00
42.7635 671.00
42.8287 690.00
42.8939 699.00
42.9591 661.00
43.0243 762.00
43.0895 697.00
43.1547 676.00
43.2199 711.00
43.2851 695.00
43.3503 735.00
43.4155 740.00
43.4807 765.00
43.5459 742.00
43.6111 741.00
43.6763 741.00
43.7415 674.00
43.8067 626.00
43.8719 632.00
43.9371 664.00
44.0023 647.00
44.0675 623.00
44.1327 633.00
44.1979 659.00
44.2631 667.00
44.3283 663.00
44.3935 615.00
44.4587 670.00
44.5239 626.00
44.5891 627.00
44.6543 668.00
44.7195 698.00
44.7847 807.00
44.8499 888.00
44.9151 1151.00
44.9803 1458.00
45.0455 1306.00
45.1107 1204.00
45.1759 875.00
45.2411 744.00
45.3063 669.00
45.3715 632.00
45.4367 595.00
45.5019 655.00
45.5671 650.00
45.6323 639.00
45.6975 630.00
45.7627 597.00
45.8279 608.00
45.8931 614.00
45.9583 585.00
46.0235 603.00
46.0887 604.00
46.1539 641.00
46.2191 586.00
46.2843 609.00
46.3495 610.00
46.4147 589.00
46.4799 597.00
46.5451 624.00
46.6103 595.00
46.6755 581.00
46.7407 584.00
46.8059 579.00
46.8711 577.00
46.9363 584.00
47.0015 532.00
47.0667 557.00
47.1319 622.00
47.1971 650.00
47.2623 640.00
47.3275 605.00
47.3927 620.00
47.4579 584.00
47.523 553.00
47.5882 584.00
47.6534 617.00
47.7186 594.00
47.7838 603.00
47.849 586.00
47.9142 613.00
47.9794 627.00
48.0446 565.00
48.1098 592.00
48.175 583.00
48.2402 587.00
48.3054 582.00
48.3706 614.00
48.4358 586.00
48.501 552.00
48.5662 560.00
48.6314 602.00
48.6966 590.00
48.7618 596.00
48.827 560.00
48.8922 561.00
48.9574 561.00
49.0226 569.00
49.0878 582.00
49.153 573.00
49.2182 636.00
49.2834 616.00
49.3486 589.00
49.4138 567.00
49.479 596.00
49.5442 615.00
49.6094 550.00
49.6746 540.00
49.7398 567.00
49.805 556.00
49.8702 532.00
49.9354 545.00
50.0006 512.00
50.0658 546.00
50.131 549.00
50.1962 519.00
50.2614 551.00
50.3266 543.00
50.3918 580.00
50.457 568.00
50.5222 566.00
50.5874 558.00
50.6526 574.00
50.7178 634.00
50.783 720.00
50.8482 812.00
50.9134 905.00
50.9786 886.00
51.0438 889.00
51.109 829.00
51.1742 755.00
51.2394 739.00
51.3046 705.00
51.3698 766.00
51.435 691.00
51.5002 727.00
51.5654 712.00
51.6306 681.00
51.6958 655.00
51.761 628.00
51.8262 573.00
51.8914 540.00
51.9566 548.00
52.0218 527.00
52.087 508.00
52.1522 521.00
52.2174 525.00
52.2826 541.00
52.3477 520.00
52.4129 523.00
52.4781 540.00
52.5433 515.00
52.6085 530.00
52.6737 479.00
52.7389 500.00
52.8041 498.00
52.8693 516.00
52.9345 509.00
52.9997 508.00
53.0649 479.00
53.1301 469.00
53.1953 488.00
53.2605 519.00
53.3257 513.00
53.3909 476.00
53.4561 501.00
53.5213 458.00
53.5865 464.00
53.6517 470.00
53.7169 497.00
53.7821 493.00
53.8473 461.00
53.9125 483.00
53.9777 452.00
54.0429 527.00
54.1081 542.00
54.1733 578.00
54.2385 593.00
54.3037 556.00
54.3689 537.00
54.4341 575.00
54.4993 606.00
54.5645 617.00
54.6297 582.00
54.6949 565.00
54.7601 499.00
54.8253 541.00
54.8905 478.00
54.9557 522.00
55.0209 434.00
55.0861 437.00
55.1513 443.00
55.2165 476.00
55.2817 473.00
55.3469 494.00
55.4121 531.00
55.4773 489.00
55.5425 483.00
55.6077 481.00
55.6729 514.00
55.7381 506.00
55.8033 509.00
55.8685 508.00
55.9337 462.00
55.9989 507.00
56.0641 432.00
56.1293 477.00
56.1945 522.00
56.2597 460.00
56.3249 432.00
56.3901 460.00
56.4553 463.00
56.5205 466.00
56.5857 445.00
56.6509 485.00
56.7161 468.00
56.7813 466.00
56.8465 469.00
56.9117 475.00
56.9769 459.00
57.042 536.00
57.1073 575.00
57.1724 603.00
57.2376 587.00
57.3028 646.00
57.368 677.00
57.4332 604.00
57.4984 534.00
57.5636 544.00
57.6288 475.00
57.694 494.00
57.7592 467.00
57.8244 507.00
57.8896 523.00
57.9548 431.00
58.02 514.00
58.0852 456.00
58.1504 495.00
58.2156 456.00
58.2808 444.00
58.346 499.00
58.4112 496.00
58.4764 486.00
58.5416 471.00
58.6068 514.00
58.672 510.00
58.7372 569.00
58.8024 561.00
58.8676 481.00
58.9328 513.00
58.998 483.00
59.0632 491.00
59.1284 464.00
59.1936 506.00
59.2588 454.00
59.324 459.00
59.3892 508.00
59.4544 484.00
59.5196 510.00
59.5848 509.00
59.65 481.00
59.7152 490.00
59.7804 531.00
59.8456 485.00
59.9108 515.00
59.976 568.00
60.0412 555.00
60.1064 538.00
60.1716 534.00
60.2368 534.00
60.302 583.00
60.3672 663.00
60.4324 687.00
60.4976 685.00
60.5628 676.00
60.628 651.00
60.6932 639.00
60.7584 647.00
60.8236 697.00
60.8888 797.00
60.954 898.00
61.0192 818.00
61.0844 866.00
61.1496 757.00
61.2148 665.00
61.28 557.00
61.3452 575.00
61.4104 486.00
61.4756 452.00
61.5408 504.00
61.606 513.00
61.6712 489.00
61.7364 463.00
61.8016 448.00
61.8667 485.00
61.932 451.00
61.9971 403.00
62.0623 441.00
62.1275 473.00
62.1927 428.00
62.2579 482.00
62.3231 433.00
62.3883 464.00
62.4535 465.00
62.5187 456.00
62.5839 426.00
62.6491 441.00
62.7143 473.00
62.7795 457.00
62.8447 475.00
62.9099 487.00
62.9751 526.00
63.0403 486.00
63.1055 494.00
63.1707 511.00
63.2359 498.00
63.3011 460.00
63.3663 440.00
63.4315 415.00
63.4967 446.00
63.5619 444.00
63.6271 473.00
63.6923 450.00
63.7575 433.00
63.8227 415.00
63.8879 419.00
63.9531 398.00
64.0183 401.00
64.0835 421.00
64.1487 416.00
64.2139 410.00
64.2791 429.00
64.3443 409.00
64.4095 439.00
64.4747 396.00
64.5399 401.00
64.6051 438.00
64.6703 437.00
64.7355 400.00
64.8007 412.00
64.8659 404.00
64.9311 421.00
64.9963 455.00
65.0615 408.00
65.1267 422.00
65.1919 413.00
65.2571 400.00
65.3223 406.00
65.3875 395.00
65.4527 401.00
65.5179 445.00
65.5831 428.00
65.6483 444.00
65.7135 416.00
65.7787 424.00
65.8439 424.00
65.9091 425.00
65.9743 439.00
66.0395 411.00
66.1047 411.00
66.1699 416.00
66.2351 441.00
66.3003 479.00
66.3655 442.00
66.4307 406.00
66.4959 456.00
66.561 461.00
66.6263 437.00
66.6915 400.00
66.7566 434.00
66.8218 444.00
66.887 398.00
66.9522 420.00
67.0174 406.00
67.0826 445.00
67.1478 439.00
67.213 396.00
67.2782 402.00
67.3434 436.00
67.4086 459.00
67.4738 446.00
67.539 435.00
67.6042 444.00
67.6694 503.00
67.7346 451.00
67.7998 504.00
67.865 428.00
67.9302 465.00
67.9954 462.00
68.0606 461.00
68.1258 450.00
68.191 469.00
68.2562 526.00
68.3214 548.00
68.3866 482.00
68.4518 502.00
68.517 474.00
68.5822 452.00
68.6474 425.00
68.7126 393.00
68.7778 396.00
68.843 435.00
68.9082 426.00
68.9734 403.00
69.0386 359.00
69.1038 404.00
69.169 418.00
69.2342 407.00
69.2994 402.00
69.3646 473.00
69.4298 399.00
69.495 385.00
69.5602 382.00
69.6254 384.00
69.6906 432.00
69.7558 395.00
69.821 457.00
69.8862 426.00
69.9514 386.00
70.0166 448.00
70.0818 405.00
70.147 416.00
70.2122 433.00
70.2774 378.00
70.3426 402.00
70.4078 399.00
70.473 405.00
70.5382 464.00
70.6034 507.00
70.6686 453.00
70.7338 472.00
70.799 430.00
70.8642 433.00
70.9294 481.00
70.9946 420.00
71.0598 411.00
71.125 442.00
71.1902 417.00
71.2554 420.00
71.3205 429.00
71.3858 421.00
71.451 402.00
71.5162 434.00
71.5813 386.00
71.6465 449.00
71.7117 344.00
71.7769 374.00
71.8421 392.00
71.9073 420.00
71.9725 387.00
72.0377 397.00
72.1029 389.00
72.1681 387.00
72.2333 408.00
72.2985 380.00
72.3637 385.00
72.4289 397.00
72.4941 414.00
72.5593 369.00
72.6245 384.00
72.6897 368.00
72.7549 429.00
72.8201 434.00
72.8853 458.00
72.9505 464.00
73.0157 454.00
73.0809 525.00
73.1461 455.00
73.2113 512.00
73.2765 506.00
73.3417 568.00
73.4069 552.00
73.4721 537.00
73.5373 523.00
73.6025 530.00
73.6677 518.00
73.7329 467.00
73.7981 519.00
73.8633 481.00
73.9285 499.00
73.9937 471.00
74.0589 479.00
74.1241 449.00
74.1893 414.00
74.2545 434.00
74.3197 461.00
74.3849 391.00
74.4501 359.00
74.5153 401.00
74.5805 366.00
74.6457 384.00
74.7109 361.00
74.7761 374.00
74.8413 379.00
74.9065 390.00
74.9717 403.00
75.0369 412.00
75.1021 398.00
75.1673 397.00
75.2325 361.00
75.2977 405.00
75.3629 455.00
75.4281 423.00
75.4933 386.00
75.5585 436.00
75.6237 388.00
75.6889 418.00
75.7541 370.00
75.8193 416.00
75.8845 421.00
75.9497 360.00
76.0149 375.00
76.0801 361.00
76.1452 373.00
76.2104 376.00
76.2756 363.00
76.3409 337.00
76.406 335.00
76.4712 378.00
76.5364 366.00
76.6016 387.00
76.6668 399.00
76.732 368.00
76.7972 409.00
76.8624 329.00
76.9276 386.00
76.9928 358.00
77.058 387.00
77.1232 376.00
77.1884 358.00
77.2536 359.00
77.3188 406.00
77.384 364.00
77.4492 386.00
77.5144 354.00
77.5796 365.00
77.6448 375.00
77.71 384.00
77.7752 380.00
77.8404 351.00
77.9056 394.00
77.9708 390.00
78.036 356.00
78.1012 411.00
78.1664 391.00
78.2316 409.00
78.2968 362.00
78.362 421.00
78.4272 389.00
78.4924 369.00
78.5576 369.00
78.6228 411.00
78.688 331.00
78.7532 386.00
78.8184 343.00
78.8836 359.00
78.9488 338.00
79.014 367.00
79.0792 350.00
79.1444 348.00
79.2096 348.00
79.2748 363.00
79.34 336.00
79.4052 384.00
79.4704 336.00
79.5356 348.00
79.6008 371.00
79.666 372.00
79.7312 340.00
79.7964 354.00
79.8616 356.00
79.9268 353.00
79.992 368.00
80.0572 338.00
80.1224 368.00
80.1876 397.00
80.2528 367.00
80.318 356.00
80.3832 374.00
80.4484 421.00
80.5136 389.00
80.5788 422.00
80.644 406.00
80.7092 422.00
80.7744 420.00
80.8396 444.00
80.9048 454.00
80.9699 405.00
81.0351 408.00
81.1003 389.00
81.1655 397.00
81.2307 385.00
81.2959 371.00
81.3611 395.00
81.4263 358.00
81.4915 361.00
81.5567 353.00
81.6219 379.00
81.6871 391.00
81.7523 365.00
81.8175 347.00
81.8827 374.00
81.9479 351.00
82.0131 393.00
82.0783 356.00
82.1435 362.00
82.2087 384.00
82.2739 382.00
82.3391 444.00
82.4043 384.00
82.4695 411.00
82.5347 382.00
82.5999 407.00
82.6651 406.00
82.7303 401.00
82.7955 344.00
82.8607 388.00
82.9259 415.00
82.9911 406.00
83.0563 419.00
83.1215 382.00
83.1867 387.00
83.2519 343.00
83.3171 355.00
83.3823 356.00
83.4475 355.00
83.5127 392.00
83.5779 350.00
83.6431 347.00
83.7083 350.00
83.7735 363.00
83.8387 344.00
83.9039 354.00
83.9691 375.00
84.0343 325.00
84.0995 333.00
84.1647 377.00
84.2299 365.00
84.2951 371.00
84.3603 353.00
84.4255 341.00
84.4907 330.00
84.5559 354.00
84.6211 326.00
84.6863 315.00
84.7515 309.00
84.8167 345.00
84.8819 342.00
84.9471 333.00
85.0123 333.00
85.0775 357.00
85.1427 343.00
85.2079 360.00
85.2731 323.00
85.3383 324.00
85.4035 303.00
85.4687 321.00
85.5339 333.00
85.5991 374.00
85.6643 307.00
85.7295 334.00
85.7946 348.00
85.8598 324.00
85.925 328.00
85.9903 338.00
86.0554 312.00
86.1206 355.00
86.1858 325.00
86.251 311.00
86.3162 322.00
86.3814 333.00
86.4466 335.00
86.5118 328.00
86.577 348.00
86.6422 310.00
86.7074 327.00
86.7726 314.00
86.8378 358.00
86.903 314.00
86.9682 313.00
87.0334 325.00
87.0986 340.00
87.1638 311.00
87.229 352.00
87.2942 340.00
87.3594 348.00
87.4246 350.00
87.4898 348.00
87.555 355.00
87.6202 358.00
87.6854 313.00
87.7506 318.00
87.8158 336.00
87.881 332.00
87.9462 315.00
88.0114 323.00
88.0766 351.00
88.1418 346.00
88.207 314.00
88.2722 344.00
88.3374 360.00
88.4026 346.00
88.4678 337.00
88.533 315.00
88.5982 360.00
88.6634 341.00
88.7286 328.00
88.7938 376.00
88.859 318.00
88.9242 335.00
88.9894 350.00
89.0546 339.00
89.1198 320.00
89.185 329.00
89.2502 329.00
89.3154 332.00
89.3806 284.00
89.4458 313.00
89.511 312.00
89.5762 310.00
89.6414 349.00
89.7066 327.00
89.7718 300.00
89.837 322.00
89.9022 333.00
89.9674 332.00
90.0326 303.00
90.0978 340.00
90.163 334.00
90.2282 319.00
90.2934 308.00
90.3586 337.00
90.4238 319.00
90.489 305.00
90.5542 304.00
90.6193 328.00
90.6845 316.00
90.7497 293.00
90.8149 293.00
90.8801 316.00
90.9453 307.00
91.0105 319.00
91.0757 320.00
91.1409 291.00
91.2061 315.00
91.2713 288.00
91.3365 301.00
91.4017 319.00
91.4669 295.00
91.5321 299.00
91.5973 312.00
91.6625 307.00
91.7277 360.00
91.7929 324.00
91.8581 364.00
91.9233 311.00
91.9885 357.00
92.0537 335.00
92.1189 326.00
92.1841 319.00
92.2493 308.00
92.3145 326.00
92.3797 319.00
92.4449 324.00
92.5101 303.00
92.5753 278.00
92.6405 317.00
92.7057 300.00
92.7709 308.00
92.8361 294.00
92.9013 320.00
92.9665 305.00
93.0317 305.00
93.0969 341.00
93.1621 295.00
93.2273 353.00
93.2925 292.00
93.3577 316.00
93.4229 259.00
93.4881 288.00
93.5533 301.00
93.6185 312.00
93.6837 300.00
93.7489 285.00
93.8141 300.00
93.8793 291.00
93.9445 272.00
94.0097 306.00
94.0749 319.00
94.1401 295.00
94.2053 285.00
94.2705 294.00
94.3357 278.00
94.4009 269.00
94.4661 272.00
94.5313 281.00
94.5965 294.00
94.6617 287.00
94.7269 286.00
94.7921 264.00
94.8573 293.00
94.9225 308.00
94.9877 276.00
95.0529 327.00
95.1181 275.00
95.1833 279.00
95.2485 297.00
95.3137 294.00
95.3789 311.00
95.444 289.00
95.5092 282.00
95.5744 262.00
95.6396 278.00
95.7048 312.00
95.77 291.00
95.8352 274.00
95.9004 321.00
95.9656 318.00
96.0308 268.00
96.096 304.00
96.1612 282.00
96.2264 325.00
96.2916 295.00
96.3568 283.00
96.422 303.00
96.4872 294.00
96.5524 305.00
96.6176 322.00
96.6828 288.00
96.748 282.00
96.8132 331.00
96.8784 305.00
96.9436 359.00
97.0088 336.00
97.074 284.00
97.1392 303.00
97.2044 337.00
97.2696 306.00
97.3348 334.00
97.4 320.00
97.4652 286.00
97.5304 325.00
97.5956 303.00
97.6608 310.00
97.726 318.00
97.7912 329.00
97.8564 328.00
97.9216 300.00
97.9868 315.00
98.052 322.00
98.1172 311.00
98.1824 306.00
98.2476 278.00
98.3128 294.00
98.378 277.00
98.4432 276.00
98.5084 256.00
98.5736 266.00
98.6388 309.00
98.704 275.00
98.7692 269.00
98.8344 280.00
98.8996 265.00
98.9648 276.00
99.03 269.00
99.0952 293.00
99.1604 284.00
99.2256 246.00
99.2908 276.00
99.356 279.00
99.4212 289.00
99.4864 243.00
99.5516 273.00
99.6168 289.00
99.682 278.00
99.7472 298.00
99.8124 312.00
99.8776 261.00
99.9428 317.00
100.008 328.00
100.073 321.00
100.095 333.00