File: data/xrd_creation/results/PG_2646-1.xy
9.903433 2669.00
9.968632 2506.00
10.0338 2469.00
10.099 2469.00
10.1642 2463.00
10.2294 2523.00
10.2946 2437.00
10.3598 2436.00
10.425 2380.00
10.4902 2307.00
10.5554 2351.00
10.6206 2330.00
10.6858 2378.00
10.751 2359.00
10.8162 2313.00
10.8814 2283.00
10.9466 2303.00
11.0118 2269.00
11.077 2143.00
11.1422 2251.00
11.2074 2245.00
11.2726 2237.00
11.3378 2232.00
11.403 2195.00
11.4682 2140.00
11.5334 2140.00
11.5986 2145.00
11.6638 2142.00
11.729 2116.00
11.7942 2075.00
11.8594 2102.00
11.9246 1996.00
11.9898 2068.00
12.055 2027.00
12.1202 1959.00
12.1854 1889.00
12.2506 1958.00
12.3158 1912.00
12.381 1936.00
12.4462 1983.00
12.5114 1952.00
12.5766 1825.00
12.6418 1883.00
12.707 1945.00
12.7722 1835.00
12.8374 1758.00
12.9026 1837.00
12.9678 1856.00
13.033 1799.00
13.0982 1812.00
13.1634 1860.00
13.2286 1831.00
13.2938 1726.00
13.359 1803.00
13.4242 1691.00
13.4894 1713.00
13.5546 1734.00
13.6198 1769.00
13.685 1736.00
13.7502 1732.00
13.8154 1708.00
13.8805 1740.00
13.9457 1760.00
14.0109 1757.00
14.0761 1750.00
14.1413 1672.00
14.2065 1645.00
14.2717 1718.00
14.3369 1704.00
14.4021 1668.00
14.4673 1713.00
14.5325 1675.00
14.5977 1682.00
14.6629 1563.00
14.7281 1572.00
14.7933 1583.00
14.8585 1659.00
14.9237 1594.00
14.9889 1634.00
15.0541 1572.00
15.1193 1567.00
15.1845 1581.00
15.2497 1484.00
15.3149 1606.00
15.3801 1550.00
15.4453 1554.00
15.5105 1583.00
15.5757 1544.00
15.6409 1560.00
15.7061 1532.00
15.7713 1513.00
15.8365 1586.00
15.9017 1550.00
15.9669 1526.00
16.0321 1466.00
16.0973 1525.00
16.1625 1555.00
16.2277 1476.00
16.2929 1529.00
16.3581 1512.00
16.4233 1467.00
16.4885 1447.00
16.5537 1434.00
16.6189 1472.00
16.6841 1506.00
16.7493 1375.00
16.8145 1498.00
16.8797 1518.00
16.9449 1454.00
17.0101 1534.00
17.0753 1430.00
17.1405 1377.00
17.2057 1469.00
17.2709 1428.00
17.3361 1396.00
17.4013 1364.00
17.4665 1456.00
17.5317 1433.00
17.5969 1380.00
17.6621 1364.00
17.7273 1411.00
17.7925 1344.00
17.8577 1402.00
17.9229 1380.00
17.9881 1321.00
18.0533 1388.00
18.1185 1384.00
18.1837 1403.00
18.2489 1324.00
18.3141 1342.00
18.3793 1306.00
18.4445 1344.00
18.5097 1315.00
18.5749 1323.00
18.6401 1392.00
18.7052 1222.00
18.7704 1318.00
18.8356 1307.00
18.9008 1312.00
18.966 1303.00
19.0312 1286.00
19.0964 1298.00
19.1616 1289.00
19.2268 1266.00
19.292 1278.00
19.3572 1295.00
19.4224 1242.00
19.4876 1287.00
19.5528 1182.00
19.618 1195.00
19.6832 1270.00
19.7484 1259.00
19.8136 1203.00
19.8788 1212.00
19.944 1171.00
20.0092 1210.00
20.0744 1205.00
20.1396 1181.00
20.2048 1207.00
20.27 1224.00
20.3352 1180.00
20.4004 1276.00
20.4656 1246.00
20.5308 1223.00
20.596 1240.00
20.6612 1187.00
20.7264 1129.00
20.7916 1158.00
20.8568 1114.00
20.922 1196.00
20.9872 1202.00
21.0524 1137.00
21.1176 1156.00
21.1828 1190.00
21.248 1187.00
21.3132 1160.00
21.3784 1131.00
21.4436 1068.00
21.5088 1135.00
21.574 1038.00
21.6392 1116.00
21.7044 1167.00
21.7696 1092.00
21.8348 1160.00
21.9 1104.00
21.9652 1116.00
22.0304 1112.00
22.0956 1099.00
22.1608 1159.00
22.226 1111.00
22.2912 1068.00
22.3564 1029.00
22.4216 1132.00
22.4868 1124.00
22.552 1071.00
22.6172 1078.00
22.6824 1011.00
22.7476 995.00
22.8128 1106.00
22.878 1181.00
22.9432 1078.00
23.0084 1140.00
23.0736 1046.00
23.1388 1041.00
23.204 1063.00
23.2692 1060.00
23.3344 1079.00
23.3996 1082.00
23.4647 1162.00
23.5299 1255.00
23.5951 1351.00
23.6603 1579.00
23.7255 1628.00
23.7907 1692.00
23.8559 1477.00
23.9211 1189.00
23.9863 1080.00
24.0515 1019.00
24.1167 996.00
24.1819 1016.00
24.2471 989.00
24.3123 996.00
24.3775 1026.00
24.4427 1002.00
24.5079 1016.00
24.5731 933.00
24.6383 976.00
24.7035 966.00
24.7687 1035.00
24.8339 984.00
24.8991 973.00
24.9643 949.00
25.0295 1005.00
25.0947 957.00
25.1599 988.00
25.2251 967.00
25.2903 955.00
25.3555 999.00
25.4207 899.00
25.4859 967.00
25.5511 909.00
25.6163 959.00
25.6815 943.00
25.7467 960.00
25.8119 940.00
25.8771 952.00
25.9423 971.00
26.0075 930.00
26.0727 980.00
26.1379 934.00
26.2031 936.00
26.2683 949.00
26.3335 902.00
26.3987 895.00
26.4639 959.00
26.5291 889.00
26.5943 919.00
26.6595 920.00
26.7247 884.00
26.7899 918.00
26.8551 872.00
26.9203 923.00
26.9855 916.00
27.0507 898.00
27.1159 906.00
27.1811 921.00
27.2463 903.00
27.3115 960.00
27.3767 992.00
27.4419 1030.00
27.5071 1205.00
27.5723 1324.00
27.6375 1498.00
27.7027 1634.00
27.7679 1507.00
27.8331 1134.00
27.8983 909.00
27.9635 901.00
28.0287 893.00
28.0939 828.00
28.1591 881.00
28.2243 859.00
28.2894 880.00
28.3546 798.00
28.4198 902.00
28.485 872.00
28.5502 880.00
28.6154 842.00
28.6806 841.00
28.7458 810.00
28.811 906.00
28.8762 838.00
28.9414 882.00
29.0066 810.00
29.0718 847.00
29.137 822.00
29.2022 852.00
29.2674 816.00
29.3326 877.00
29.3978 880.00
29.463 842.00
29.5282 790.00
29.5934 829.00
29.6586 860.00
29.7238 821.00
29.789 814.00
29.8542 791.00
29.9194 883.00
29.9846 814.00
30.0498 849.00
30.115 804.00
30.1802 799.00
30.2454 841.00
30.3106 818.00
30.3758 828.00
30.441 820.00
30.5062 776.00
30.5714 771.00
30.6366 799.00
30.7018 763.00
30.767 803.00
30.8322 792.00
30.8974 832.00
30.9626 824.00
31.0278 760.00
31.093 833.00
31.1582 764.00
31.2234 790.00
31.2886 791.00
31.3538 822.00
31.419 833.00
31.4842 824.00
31.5494 804.00
31.6146 802.00
31.6798 882.00
31.745 801.00
31.8102 783.00
31.8754 866.00
31.9406 900.00
32.0058 1012.00
32.071 1233.00
32.1362 1686.00
32.2014 2335.00
32.2666 2956.00
32.3318 3880.00
32.397 3622.00
32.4622 2340.00
32.5274 1281.00
32.5926 886.00
32.6578 804.00
32.723 832.00
32.7882 799.00
32.8534 788.00
32.9186 821.00
32.9838 785.00
33.0489 765.00
33.1141 784.00
33.1793 774.00
33.2445 768.00
33.3097 817.00
33.3749 753.00
33.4401 768.00
33.5053 791.00
33.5705 766.00
33.6357 788.00
33.7009 749.00
33.7661 737.00
33.8313 770.00
33.8965 752.00
33.9617 731.00
34.0269 772.00
34.0921 766.00
34.1573 772.00
34.2225 787.00
34.2877 718.00
34.3529 806.00
34.4181 779.00
34.4833 793.00
34.5485 789.00
34.6137 746.00
34.6789 768.00
34.7441 828.00
34.8093 879.00
34.8745 1090.00
34.9397 1318.00
35.0049 1755.00
35.0701 2347.00
35.1353 2897.00
35.2005 2481.00
35.2657 1591.00
35.3309 1115.00
35.3961 892.00
35.4613 804.00
35.5265 800.00
35.5917 810.00
35.6569 802.00
35.7221 738.00
35.7873 733.00
35.8525 753.00
35.9177 742.00
35.9829 742.00
36.0481 807.00
36.1133 852.00
36.1785 917.00
36.2437 972.00
36.3089 1160.00
36.3741 1165.00
36.4393 967.00
36.5045 803.00
36.5697 758.00
36.6349 722.00
36.7001 798.00
36.7653 692.00
36.8305 699.00
36.8957 707.00
36.9609 686.00
37.0261 658.00
37.0913 751.00
37.1565 699.00
37.2217 690.00
37.2869 719.00
37.3521 723.00
37.4173 727.00
37.4825 729.00
37.5477 808.00
37.6129 742.00
37.6781 681.00
37.7433 684.00
37.8085 786.00
37.8736 687.00
37.9388 700.00
38.004 722.00
38.0692 729.00
38.1344 699.00
38.1996 661.00
38.2648 729.00
38.33 693.00
38.3952 739.00
38.4604 668.00
38.5256 709.00
38.5908 750.00
38.656 698.00
38.7212 667.00
38.7864 663.00
38.8516 680.00
38.9168 682.00
38.982 710.00
39.0472 708.00
39.1124 693.00
39.1776 684.00
39.2428 683.00
39.308 754.00
39.3732 786.00
39.4384 787.00
39.5036 731.00
39.5688 737.00
39.634 716.00
39.6992 712.00
39.7644 769.00
39.8296 813.00
39.8948 969.00
39.96 1156.00
40.0252 1366.00
40.0904 1558.00
40.1556 1303.00
40.2208 1011.00
40.286 788.00
40.3512 765.00
40.4164 672.00
40.4816 743.00
40.5468 702.00
40.612 715.00
40.6772 753.00
40.7424 686.00
40.8076 714.00
40.8728 678.00
40.938 695.00
41.0032 667.00
41.0684 715.00
41.1336 715.00
41.1988 783.00
41.264 797.00
41.3292 821.00
41.3944 834.00
41.4596 882.00
41.5248 891.00
41.59 868.00
41.6552 757.00
41.7204 689.00
41.7856 659.00
41.8508 652.00
41.916 661.00
41.9812 683.00
42.0464 687.00
42.1116 683.00
42.1768 657.00
42.242 687.00
42.3072 664.00
42.3724 616.00
42.4376 643.00
42.5028 680.00
42.568 675.00
42.6332 695.00
42.6983 688.00
42.7635 719.00
42.8287 681.00
42.8939 691.00
42.9591 651.00
43.0243 643.00
43.0895 703.00
43.1547 674.00
43.2199 686.00
43.2851 670.00
43.3503 668.00
43.4155 710.00
43.4807 692.00
43.5459 654.00
43.6111 672.00
43.6763 693.00
43.7415 673.00
43.8067 738.00
43.8719 654.00
43.9371 664.00
44.0023 655.00
44.0675 702.00
44.1327 680.00
44.1979 702.00
44.2631 726.00
44.3283 781.00
44.3935 729.00
44.4587 716.00
44.5239 702.00
44.5891 655.00
44.6543 697.00
44.7195 707.00
44.7847 708.00
44.8499 715.00
44.9151 718.00
44.9803 690.00
45.0455 622.00
45.1107 641.00
45.1759 679.00
45.2411 651.00
45.3063 668.00
45.3715 685.00
45.4367 683.00
45.5019 688.00
45.5671 681.00
45.6323 653.00
45.6975 638.00
45.7627 651.00
45.8279 622.00
45.8931 648.00
45.9583 635.00
46.0235 670.00
46.0887 635.00
46.1539 656.00
46.2191 670.00
46.2843 632.00
46.3495 658.00
46.4147 673.00
46.4799 691.00
46.5451 628.00
46.6103 729.00
46.6755 691.00
46.7407 615.00
46.8059 624.00
46.8711 695.00
46.9363 654.00
47.0015 662.00
47.0667 648.00
47.1319 676.00
47.1971 676.00
47.2623 701.00
47.3275 607.00
47.3927 678.00
47.4579 632.00
47.523 692.00
47.5882 613.00
47.6534 701.00
47.7186 649.00
47.7838 712.00
47.849 679.00
47.9142 663.00
47.9794 729.00
48.0446 752.00
48.1098 825.00
48.175 982.00
48.2402 1287.00
48.3054 1601.00
48.3706 2002.00
48.4358 1939.00
48.501 1510.00
48.5662 1187.00
48.6314 858.00
48.6966 738.00
48.7618 698.00
48.827 685.00
48.8922 675.00
48.9574 683.00
49.0226 651.00
49.0878 728.00
49.153 686.00
49.2182 679.00
49.2834 650.00
49.3486 697.00
49.4138 666.00
49.479 662.00
49.5442 681.00
49.6094 634.00
49.6746 693.00
49.7398 690.00
49.805 655.00
49.8702 598.00
49.9354 684.00
50.0006 702.00
50.0658 666.00
50.131 641.00
50.1962 660.00
50.2614 652.00
50.3266 652.00
50.3918 740.00
50.457 693.00
50.5222 652.00
50.5874 671.00
50.6526 666.00
50.7178 682.00
50.783 669.00
50.8482 650.00
50.9134 638.00
50.9786 669.00
51.0438 676.00
51.109 643.00
51.1742 706.00
51.2394 699.00
51.3046 701.00
51.3698 645.00
51.435 649.00
51.5002 751.00
51.5654 678.00
51.6306 668.00
51.6958 659.00
51.761 715.00
51.8262 647.00
51.8914 667.00
51.9566 670.00
52.0218 750.00
52.087 727.00
52.1522 742.00
52.2174 758.00
52.2826 871.00
52.3477 991.00
52.4129 1299.00
52.4781 1743.00
52.5433 2158.00
52.6085 2429.00
52.6737 1943.00
52.7389 1631.00
52.8041 1173.00
52.8693 839.00
52.9345 730.00
52.9997 704.00
53.0649 687.00
53.1301 723.00
53.1953 668.00
53.2605 661.00
53.3257 663.00
53.3909 704.00
53.4561 685.00
53.5213 694.00
53.5865 668.00
53.6517 684.00
53.7169 690.00
53.7821 701.00
53.8473 679.00
53.9125 690.00
53.9777 656.00
54.0429 703.00
54.1081 714.00
54.1733 699.00
54.2385 713.00
54.3037 714.00
54.3689 797.00
54.4341 935.00
54.4993 1026.00
54.5645 1276.00
54.6297 1391.00
54.6949 1167.00
54.7601 1002.00
54.8253 788.00
54.8905 778.00
54.9557 713.00
55.0209 693.00
55.0861 695.00
55.1513 719.00
55.2165 748.00
55.2817 743.00
55.3469 701.00
55.4121 771.00
55.4773 907.00
55.5425 943.00
55.6077 1053.00
55.6729 994.00
55.7381 926.00
55.8033 856.00
55.8685 799.00
55.9337 721.00
55.9989 690.00
56.0641 653.00
56.1293 655.00
56.1945 711.00
56.2597 705.00
56.3249 793.00
56.3901 795.00
56.4553 743.00
56.5205 732.00
56.5857 704.00
56.6509 741.00
56.7161 736.00
56.7813 829.00
56.8465 833.00
56.9117 908.00
56.9769 838.00
57.042 757.00
57.1073 766.00
57.1724 614.00
57.2376 692.00
57.3028 671.00
57.368 761.00
57.4332 630.00
57.4984 640.00
57.5636 668.00
57.6288 719.00
57.694 728.00
57.7592 672.00
57.8244 685.00
57.8896 740.00
57.9548 649.00
58.02 706.00
58.0852 697.00
58.1504 631.00
58.2156 686.00
58.2808 664.00
58.346 640.00
58.4112 663.00
58.4764 709.00
58.5416 688.00
58.6068 684.00
58.672 690.00
58.7372 669.00
58.8024 715.00
58.8676 719.00
58.9328 689.00
58.998 709.00
59.0632 651.00
59.1284 688.00
59.1936 723.00
59.2588 719.00
59.324 675.00
59.3892 702.00
59.4544 649.00
59.5196 667.00
59.5848 692.00
59.65 719.00
59.7152 689.00
59.7804 727.00
59.8456 656.00
59.9108 734.00
59.976 708.00
60.0412 722.00
60.1064 701.00
60.1716 670.00
60.2368 691.00
60.302 697.00
60.3672 709.00
60.4324 669.00
60.4976 753.00
60.5628 676.00
60.628 754.00
60.6932 711.00
60.7584 821.00
60.8236 863.00
60.8888 1028.00
60.954 1294.00
61.0192 1743.00
61.0844 1943.00
61.1496 1561.00
61.2148 1355.00
61.28 1082.00
61.3452 906.00
61.4104 766.00
61.4756 722.00
61.5408 695.00
61.606 719.00
61.6712 741.00
61.7364 658.00
61.8016 701.00
61.8667 708.00
61.932 738.00
61.9971 670.00
62.0623 706.00
62.1275 685.00
62.1927 724.00
62.2579 759.00
62.3231 697.00
62.3883 734.00
62.4535 707.00
62.5187 774.00
62.5839 875.00
62.6491 1077.00
62.7143 1423.00
62.7795 1744.00
62.8447 1952.00
62.9099 1576.00
62.9751 1422.00
63.0403 1234.00
63.1055 909.00
63.1707 807.00
63.2359 820.00
63.3011 695.00
63.3663 703.00
63.4315 696.00
63.4967 724.00
63.5619 714.00
63.6271 742.00
63.6923 670.00
63.7575 706.00
63.8227 653.00
63.8879 662.00
63.9531 691.00
64.0183 753.00
64.0835 707.00
64.1487 711.00
64.2139 782.00
64.2791 766.00
64.3443 839.00
64.4095 794.00
64.4747 816.00
64.5399 794.00
64.6051 732.00
64.6703 718.00
64.7355 712.00
64.8007 734.00
64.8659 672.00
64.9311 720.00
64.9963 680.00
65.0615 690.00
65.1267 704.00
65.1919 749.00
65.2571 708.00
65.3223 678.00
65.3875 661.00
65.4527 684.00
65.5179 684.00
65.5831 715.00
65.6483 680.00
65.7135 729.00
65.7787 695.00
65.8439 657.00
65.9091 673.00
65.9743 712.00
66.0395 699.00
66.1047 692.00
66.1699 691.00
66.2351 779.00
66.3003 699.00
66.3655 712.00
66.4307 722.00
66.4959 672.00
66.561 751.00
66.6263 705.00
66.6915 733.00
66.7566 699.00
66.8218 712.00
66.887 649.00
66.9522 695.00
67.0174 694.00
67.0826 666.00
67.1478 703.00
67.213 685.00
67.2782 787.00
67.3434 835.00
67.4086 860.00
67.4738 764.00
67.539 824.00
67.6042 723.00
67.6694 723.00
67.7346 736.00
67.7998 721.00
67.865 717.00
67.9302 704.00
67.9954 752.00
68.0606 740.00
68.1258 724.00
68.191 711.00
68.2562 701.00
68.3214 749.00
68.3866 778.00
68.4518 669.00
68.517 683.00
68.5822 697.00
68.6474 703.00
68.7126 709.00
68.7778 761.00
68.843 764.00
68.9082 746.00
68.9734 822.00
69.0386 875.00
69.1038 991.00
69.169 1244.00
69.2342 1357.00
69.2994 1276.00
69.3646 1092.00
69.4298 1050.00
69.495 911.00
69.5602 866.00
69.6254 833.00
69.6906 829.00
69.7558 890.00
69.821 904.00
69.8862 843.00
69.9514 910.00
70.0166 873.00
70.0818 884.00
70.147 827.00
70.2122 780.00
70.2774 793.00
70.3426 758.00
70.4078 714.00
70.473 736.00
70.5382 695.00
70.6034 742.00
70.6686 686.00
70.7338 748.00
70.799 730.00
70.8642 725.00
70.9294 747.00
70.9946 713.00
71.0598 702.00
71.125 684.00
71.1902 732.00
71.2554 736.00
71.3205 755.00
71.3858 733.00
71.451 717.00
71.5162 702.00
71.5813 708.00
71.6465 713.00
71.7117 675.00
71.7769 684.00
71.8421 665.00
71.9073 773.00
71.9725 747.00
72.0377 749.00
72.1029 734.00
72.1681 762.00
72.2333 697.00
72.2985 691.00
72.3637 707.00
72.4289 728.00
72.4941 694.00
72.5593 775.00
72.6245 694.00
72.6897 755.00
72.7549 734.00
72.8201 696.00
72.8853 747.00
72.9505 746.00
73.0157 731.00
73.0809 750.00
73.1461 722.00
73.2113 698.00
73.2765 744.00
73.3417 724.00
73.4069 731.00
73.4721 777.00
73.5373 774.00
73.6025 761.00
73.6677 745.00
73.7329 792.00
73.7981 820.00
73.8633 910.00
73.9285 1067.00
73.9937 967.00
74.0589 913.00
74.1241 906.00
74.1893 793.00
74.2545 768.00
74.3197 778.00
74.3849 737.00
74.4501 724.00
74.5153 736.00
74.5805 777.00
74.6457 762.00
74.7109 736.00
74.7761 761.00
74.8413 747.00
74.9065 744.00
74.9717 723.00
75.0369 739.00
75.1021 738.00
75.1673 754.00
75.2325 727.00
75.2977 744.00
75.3629 728.00
75.4281 767.00
75.4933 742.00
75.5585 806.00
75.6237 813.00
75.6889 769.00
75.7541 827.00
75.8193 725.00
75.8845 797.00
75.9497 745.00
76.0149 775.00
76.0801 760.00
76.1452 734.00
76.2104 713.00
76.2756 723.00
76.3409 701.00
76.406 774.00
76.4712 792.00
76.5364 788.00
76.6016 804.00
76.6668 718.00
76.732 727.00
76.7972 790.00
76.8624 790.00
76.9276 811.00
76.9928 813.00
77.058 809.00
77.1232 734.00
77.1884 773.00
77.2536 769.00
77.3188 727.00
77.384 733.00
77.4492 698.00
77.5144 764.00
77.5796 683.00
77.6448 809.00
77.71 728.00
77.7752 748.00
77.8404 824.00
77.9056 775.00
77.9708 795.00
78.036 823.00
78.1012 875.00
78.1664 930.00
78.2316 923.00
78.2968 864.00
78.362 853.00
78.4272 817.00
78.4924 788.00
78.5576 798.00
78.6228 856.00
78.688 790.00
78.7532 762.00
78.8184 818.00
78.8836 787.00
78.9488 830.00
79.014 808.00
79.0792 831.00
79.1444 779.00
79.2096 748.00
79.2748 700.00
79.34 756.00
79.4052 808.00
79.4704 742.00
79.5356 820.00
79.6008 753.00
79.666 836.00
79.7312 865.00
79.7964 879.00
79.8616 950.00
79.9268 991.00
79.992 972.00
80.0572 883.00
80.1224 849.00
80.1876 855.00
80.2528 828.00
80.318 811.00
80.3832 720.00
80.4484 772.00
80.5136 714.00
80.5788 741.00
80.644 820.00
80.7092 814.00
80.7744 769.00
80.8396 772.00
80.9048 794.00
80.9699 738.00
81.0351 794.00
81.1003 723.00
81.1655 763.00
81.2307 727.00
81.2959 722.00
81.3611 769.00
81.4263 773.00
81.4915 751.00
81.5567 777.00
81.6219 753.00
81.6871 782.00
81.7523 763.00
81.8175 776.00
81.8827 794.00
81.9479 791.00
82.0131 743.00
82.0783 789.00
82.1435 739.00
82.2087 730.00
82.2739 780.00
82.3391 794.00
82.4043 765.00
82.4695 815.00
82.5347 820.00
82.5999 876.00
82.6651 871.00
82.7303 923.00
82.7955 1050.00
82.8607 1106.00
82.9259 1132.00
82.9911 1007.00
83.0563 984.00
83.1215 933.00
83.1867 956.00
83.2519 845.00
83.3171 767.00
83.3823 761.00
83.4475 784.00
83.5127 789.00
83.5779 774.00
83.6431 772.00
83.7083 717.00
83.7735 780.00
83.8387 771.00
83.9039 750.00
83.9691 796.00
84.0343 761.00
84.0995 754.00
84.1647 754.00
84.2299 766.00
84.2951 726.00
84.3603 784.00
84.4255 850.00
84.4907 837.00
84.5559 802.00
84.6211 786.00
84.6863 758.00
84.7515 832.00
84.8167 779.00
84.8819 759.00
84.9471 781.00
85.0123 763.00
85.0775 767.00
85.1427 758.00
85.2079 795.00
85.2731 794.00
85.3383 782.00
85.4035 813.00
85.4687 816.00
85.5339 791.00
85.5991 802.00
85.6643 827.00
85.7295 795.00
85.7946 766.00
85.8598 805.00
85.925 866.00
85.9903 902.00
86.0554 1018.00
86.1206 1024.00
86.1858 1034.00
86.251 953.00
86.3162 978.00
86.3814 892.00
86.4466 887.00
86.5118 836.00
86.577 847.00
86.6422 830.00
86.7074 782.00
86.7726 773.00
86.8378 858.00
86.903 773.00
86.9682 764.00
87.0334 832.00
87.0986 800.00
87.1638 793.00
87.229 780.00
87.2942 749.00
87.3594 788.00
87.4246 740.00
87.4898 797.00
87.555 766.00
87.6202 794.00
87.6854 817.00
87.7506 793.00
87.8158 798.00
87.881 808.00
87.9462 765.00
88.0114 828.00
88.0766 754.00
88.1418 783.00
88.207 726.00
88.2722 776.00
88.3374 765.00
88.4026 840.00
88.4678 803.00
88.533 790.00
88.5982 800.00
88.6634 783.00
88.7286 762.00
88.7938 837.00
88.859 818.00
88.9242 785.00
88.9894 825.00
89.0546 791.00
89.1198 813.00
89.185 780.00
89.2502 867.00
89.3154 809.00
89.3806 800.00
89.4458 836.00
89.511 867.00
89.5762 778.00
89.6414 845.00
89.7066 845.00
89.7718 863.00
89.837 836.00
89.9022 827.00
89.9674 858.00
90.0326 912.00
90.0978 978.00
90.163 1029.00
90.2282 1084.00
90.2934 1116.00
90.3586 1005.00
90.4238 982.00
90.489 985.00
90.5542 981.00
90.6193 906.00
90.6845 889.00
90.7497 838.00
90.8149 843.00
90.8801 785.00
90.9453 878.00
91.0105 872.00
91.0757 880.00
91.1409 849.00
91.2061 843.00
91.2713 825.00
91.3365 829.00
91.4017 838.00
91.4669 839.00
91.5321 846.00
91.5973 747.00
91.6625 831.00
91.7277 805.00
91.7929 805.00
91.8581 797.00
91.9233 795.00
91.9885 799.00
92.0537 813.00
92.1189 842.00
92.1841 787.00
92.2493 782.00
92.3145 849.00
92.3797 816.00
92.4449 856.00
92.5101 793.00
92.5753 852.00
92.6405 828.00
92.7057 852.00
92.7709 813.00
92.8361 876.00
92.9013 843.00
92.9665 817.00
93.0317 775.00
93.0969 890.00
93.1621 958.00
93.2273 992.00
93.2925 905.00
93.3577 834.00
93.4229 856.00
93.4881 932.00
93.5533 875.00
93.6185 812.00
93.6837 792.00
93.7489 797.00
93.8141 810.00
93.8793 876.00
93.9445 802.00
94.0097 811.00
94.0749 873.00
94.1401 815.00
94.2053 845.00
94.2705 854.00
94.3357 798.00
94.4009 742.00
94.4661 795.00
94.5313 807.00
94.5965 793.00
94.6617 763.00
94.7269 844.00
94.7921 831.00
94.8573 824.00
94.9225 784.00
94.9877 834.00
95.0529 786.00
95.1181 799.00
95.1833 784.00
95.2485 830.00
95.3137 864.00
95.3789 817.00
95.444 862.00
95.5092 983.00
95.5744 872.00
95.6396 888.00
95.7048 870.00
95.77 816.00
95.8352 899.00
95.9004 889.00
95.9656 794.00
96.0308 866.00
96.096 851.00
96.1612 834.00
96.2264 896.00
96.2916 949.00
96.3568 920.00
96.422 832.00
96.4872 885.00
96.5524 847.00
96.6176 871.00
96.6828 858.00
96.748 820.00
96.8132 836.00
96.8784 854.00
96.9436 824.00
97.0088 779.00
97.074 824.00
97.1392 813.00
97.2044 798.00
97.2696 901.00
97.3348 849.00
97.4 854.00
97.4652 857.00
97.5304 887.00
97.5956 826.00
97.6608 814.00
97.726 907.00
97.7912 815.00
97.8564 866.00
97.9216 859.00
97.9868 853.00
98.052 828.00
98.1172 876.00
98.1824 862.00
98.2476 855.00
98.3128 854.00
98.378 859.00
98.4432 850.00
98.5084 850.00
98.5736 849.00
98.6388 860.00
98.704 909.00
98.7692 913.00
98.8344 994.00
98.8996 987.00
98.9648 1039.00
99.03 909.00
99.0952 919.00
99.1604 905.00
99.2256 947.00
99.2908 945.00
99.356 861.00
99.4212 916.00
99.4864 835.00
99.5516 906.00
99.6168 824.00
99.682 855.00
99.7472 825.00
99.8124 863.00
99.8776 865.00
99.9428 833.00
100.008 861.00
100.073 830.00
100.095 894.00