File: data/xrd_creation/results/PG_2447-1.xy
9.903433 2655.00
9.968632 2669.00
10.0338 2725.00
10.099 2634.00
10.1642 2620.00
10.2294 2648.00
10.2946 2555.00
10.3598 2602.00
10.425 2523.00
10.4902 2524.00
10.5554 2612.00
10.6206 2518.00
10.6858 2455.00
10.751 2330.00
10.8162 2524.00
10.8814 2426.00
10.9466 2339.00
11.0118 2402.00
11.077 2371.00
11.1422 2351.00
11.2074 2377.00
11.2726 2341.00
11.3378 2312.00
11.403 2231.00
11.4682 2405.00
11.5334 2275.00
11.5986 2275.00
11.6638 2333.00
11.729 2224.00
11.7942 2240.00
11.8594 2260.00
11.9246 2132.00
11.9898 2200.00
12.055 2216.00
12.1202 2227.00
12.1854 2192.00
12.2506 2046.00
12.3158 2159.00
12.381 2154.00
12.4462 2024.00
12.5114 2005.00
12.5766 2065.00
12.6418 2091.00
12.707 2099.00
12.7722 1988.00
12.8374 1995.00
12.9026 2112.00
12.9678 1921.00
13.033 1942.00
13.0982 2060.00
13.1634 1998.00
13.2286 1959.00
13.2938 1951.00
13.359 1950.00
13.4242 1942.00
13.4894 1933.00
13.5546 1973.00
13.6198 1893.00
13.685 1896.00
13.7502 1908.00
13.8154 1955.00
13.8805 1913.00
13.9457 1904.00
14.0109 1839.00
14.0761 1881.00
14.1413 1753.00
14.2065 1894.00
14.2717 1859.00
14.3369 1830.00
14.4021 1908.00
14.4673 1870.00
14.5325 1910.00
14.5977 1810.00
14.6629 1821.00
14.7281 1835.00
14.7933 1815.00
14.8585 1792.00
14.9237 1797.00
14.9889 1740.00
15.0541 1822.00
15.1193 1757.00
15.1845 1793.00
15.2497 1770.00
15.3149 1714.00
15.3801 1769.00
15.4453 1913.00
15.5105 1769.00
15.5757 1818.00
15.6409 1770.00
15.7061 1728.00
15.7713 1726.00
15.8365 1807.00
15.9017 1765.00
15.9669 1754.00
16.0321 1719.00
16.0973 1727.00
16.1625 1649.00
16.2277 1728.00
16.2929 1674.00
16.3581 1728.00
16.4233 1692.00
16.4885 1724.00
16.5537 1700.00
16.6189 1684.00
16.6841 1646.00
16.7493 1712.00
16.8145 1627.00
16.8797 1704.00
16.9449 1647.00
17.0101 1673.00
17.0753 1572.00
17.1405 1567.00
17.2057 1697.00
17.2709 1596.00
17.3361 1613.00
17.4013 1665.00
17.4665 1655.00
17.5317 1590.00
17.5969 1592.00
17.6621 1623.00
17.7273 1579.00
17.7925 1488.00
17.8577 1538.00
17.9229 1658.00
17.9881 1540.00
18.0533 1569.00
18.1185 1593.00
18.1837 1610.00
18.2489 1596.00
18.3141 1502.00
18.3793 1525.00
18.4445 1549.00
18.5097 1578.00
18.5749 1567.00
18.6401 1531.00
18.7052 1535.00
18.7704 1510.00
18.8356 1464.00
18.9008 1534.00
18.966 1532.00
19.0312 1537.00
19.0964 1488.00
19.1616 1464.00
19.2268 1457.00
19.292 1481.00
19.3572 1453.00
19.4224 1439.00
19.4876 1419.00
19.5528 1417.00
19.618 1387.00
19.6832 1461.00
19.7484 1464.00
19.8136 1388.00
19.8788 1398.00
19.944 1440.00
20.0092 1398.00
20.0744 1444.00
20.1396 1416.00
20.2048 1469.00
20.27 1412.00
20.3352 1402.00
20.4004 1402.00
20.4656 1412.00
20.5308 1423.00
20.596 1368.00
20.6612 1361.00
20.7264 1444.00
20.7916 1370.00
20.8568 1412.00
20.922 1379.00
20.9872 1371.00
21.0524 1384.00
21.1176 1413.00
21.1828 1319.00
21.248 1447.00
21.3132 1417.00
21.3784 1440.00
21.4436 1454.00
21.5088 1538.00
21.574 1616.00
21.6392 1694.00
21.7044 1611.00
21.7696 1553.00
21.8348 1448.00
21.9 1441.00
21.9652 1382.00
22.0304 1347.00
22.0956 1378.00
22.1608 1371.00
22.226 1340.00
22.2912 1410.00
22.3564 1313.00
22.4216 1245.00
22.4868 1339.00
22.552 1338.00
22.6172 1321.00
22.6824 1331.00
22.7476 1302.00
22.8128 1301.00
22.878 1300.00
22.9432 1301.00
23.0084 1281.00
23.0736 1301.00
23.1388 1367.00
23.204 1293.00
23.2692 1253.00
23.3344 1259.00
23.3996 1282.00
23.4647 1275.00
23.5299 1308.00
23.5951 1349.00
23.6603 1309.00
23.7255 1280.00
23.7907 1352.00
23.8559 1351.00
23.9211 1312.00
23.9863 1278.00
24.0515 1375.00
24.1167 1317.00
24.1819 1354.00
24.2471 1366.00
24.3123 1460.00
24.3775 1679.00
24.4427 2369.00
24.5079 3817.00
24.5731 6406.00
24.6383 8274.00
24.7035 4893.00
24.7687 2209.00
24.8339 1525.00
24.8991 1367.00
24.9643 1307.00
25.0295 1288.00
25.0947 1315.00
25.1599 1206.00
25.2251 1172.00
25.2903 1195.00
25.3555 1166.00
25.4207 1166.00
25.4859 1228.00
25.5511 1129.00
25.6163 1114.00
25.6815 1165.00
25.7467 1161.00
25.8119 1153.00
25.8771 1224.00
25.9423 1164.00
26.0075 1167.00
26.0727 1107.00
26.1379 1108.00
26.2031 1159.00
26.2683 1060.00
26.3335 1091.00
26.3987 1059.00
26.4639 1104.00
26.5291 1073.00
26.5943 1115.00
26.6595 1082.00
26.7247 1083.00
26.7899 1115.00
26.8551 1034.00
26.9203 1053.00
26.9855 1007.00
27.0507 1088.00
27.1159 1000.00
27.1811 1090.00
27.2463 1055.00
27.3115 998.00
27.3767 983.00
27.4419 955.00
27.5071 993.00
27.5723 1037.00
27.6375 981.00
27.7027 1025.00
27.7679 963.00
27.8331 1009.00
27.8983 1033.00
27.9635 982.00
28.0287 1054.00
28.0939 994.00
28.1591 938.00
28.2243 991.00
28.2894 1022.00
28.3546 1010.00
28.4198 1046.00
28.485 982.00
28.5502 959.00
28.6154 1051.00
28.6806 988.00
28.7458 917.00
28.811 974.00
28.8762 970.00
28.9414 1019.00
29.0066 958.00
29.0718 939.00
29.137 960.00
29.2022 972.00
29.2674 1010.00
29.3326 973.00
29.3978 972.00
29.463 961.00
29.5282 932.00
29.5934 982.00
29.6586 1031.00
29.7238 981.00
29.789 1026.00
29.8542 1008.00
29.9194 1027.00
29.9846 988.00
30.0498 1015.00
30.115 1069.00
30.1802 1051.00
30.2454 1141.00
30.3106 1474.00
30.3758 1684.00
30.441 1346.00
30.5062 1100.00
30.5714 1152.00
30.6366 1061.00
30.7018 1093.00
30.767 1154.00
30.8322 1148.00
30.8974 1113.00
30.9626 1140.00
31.0278 1074.00
31.093 1006.00
31.1582 1053.00
31.2234 1011.00
31.2886 999.00
31.3538 1024.00
31.419 990.00
31.4842 1021.00
31.5494 963.00
31.6146 1038.00
31.6798 1024.00
31.745 1048.00
31.8102 1115.00
31.8754 1150.00
31.9406 1176.00
32.0058 1161.00
32.071 1219.00
32.1362 1254.00
32.2014 1323.00
32.2666 1425.00
32.3318 1312.00
32.397 1154.00
32.4622 1077.00
32.5274 1067.00
32.5926 1061.00
32.6578 1119.00
32.723 1114.00
32.7882 1139.00
32.8534 1266.00
32.9186 1294.00
32.9838 1331.00
33.0489 1510.00
33.1141 2043.00
33.1793 3567.00
33.2445 7279.00
33.3097 10358.00
33.3749 7333.00
33.4401 3645.00
33.5053 1834.00
33.5705 1345.00
33.6357 1204.00
33.7009 1177.00
33.7661 1479.00
33.8313 2129.00
33.8965 2083.00
33.9617 1602.00
34.0269 1040.00
34.0921 950.00
34.1573 1015.00
34.2225 972.00
34.2877 1009.00
34.3529 988.00
34.4181 948.00
34.4833 926.00
34.5485 886.00
34.6137 889.00
34.6789 858.00
34.7441 907.00
34.8093 868.00
34.8745 878.00
34.9397 868.00
35.0049 864.00
35.0701 932.00
35.1353 1048.00
35.2005 1013.00
35.2657 880.00
35.3309 845.00
35.3961 868.00
35.4613 837.00
35.5265 904.00
35.5917 819.00
35.6569 844.00
35.7221 922.00
35.7873 831.00
35.8525 863.00
35.9177 881.00
35.9829 947.00
36.0481 1026.00
36.1133 1096.00
36.1785 1115.00
36.2437 1269.00
36.3089 1405.00
36.3741 2175.00
36.4393 3920.00
36.5045 7315.00
36.5697 7941.00
36.6349 5144.00
36.7001 2600.00
36.7653 1322.00
36.8305 1100.00
36.8957 1079.00
36.9609 944.00
37.0261 1012.00
37.0913 1074.00
37.1565 1218.00
37.2217 1482.00
37.2869 1299.00
37.3521 1162.00
37.4173 895.00
37.4825 885.00
37.5477 775.00
37.6129 819.00
37.6781 820.00
37.7433 828.00
37.8085 839.00
37.8736 814.00
37.9388 767.00
38.004 801.00
38.0692 815.00
38.1344 718.00
38.1996 760.00
38.2648 807.00
38.33 760.00
38.3952 793.00
38.4604 818.00
38.5256 749.00
38.5908 782.00
38.656 793.00
38.7212 878.00
38.7864 1089.00
38.8516 1329.00
38.9168 1180.00
38.982 997.00
39.0472 841.00
39.1124 766.00
39.1776 767.00
39.2428 711.00
39.308 723.00
39.3732 771.00
39.4384 721.00
39.5036 756.00
39.5688 678.00
39.634 673.00
39.6992 723.00
39.7644 763.00
39.8296 782.00
39.8948 810.00
39.96 787.00
40.0252 781.00
40.0904 726.00
40.1556 762.00
40.2208 851.00
40.286 825.00
40.3512 760.00
40.4164 763.00
40.4816 746.00
40.5468 788.00
40.612 824.00
40.6772 770.00
40.7424 711.00
40.8076 679.00
40.8728 754.00
40.938 772.00
41.0032 765.00
41.0684 698.00
41.1336 791.00
41.1988 749.00
41.264 853.00
41.3292 1004.00
41.3944 1514.00
41.4596 2680.00
41.5248 4008.00
41.59 2925.00
41.6552 2147.00
41.7204 1230.00
41.7856 885.00
41.8508 839.00
41.916 790.00
41.9812 731.00
42.0464 728.00
42.1116 724.00
42.1768 696.00
42.242 696.00
42.3072 708.00
42.3724 749.00
42.4376 645.00
42.5028 693.00
42.568 709.00
42.6332 658.00
42.6983 671.00
42.7635 625.00
42.8287 664.00
42.8939 691.00
42.9591 692.00
43.0243 677.00
43.0895 693.00
43.1547 653.00
43.2199 674.00
43.2851 611.00
43.3503 694.00
43.4155 706.00
43.4807 666.00
43.5459 702.00
43.6111 637.00
43.6763 655.00
43.7415 685.00
43.8067 809.00
43.8719 790.00
43.9371 699.00
44.0023 637.00
44.0675 673.00
44.1327 706.00
44.1979 695.00
44.2631 807.00
44.3283 954.00
44.3935 1164.00
44.4587 1064.00
44.5239 925.00
44.5891 793.00
44.6543 723.00
44.7195 686.00
44.7847 671.00
44.8499 662.00
44.9151 655.00
44.9803 673.00
45.0455 659.00
45.1107 637.00
45.1759 618.00
45.2411 597.00
45.3063 634.00
45.3715 662.00
45.4367 590.00
45.5019 623.00
45.5671 654.00
45.6323 645.00
45.6975 629.00
45.7627 651.00
45.8279 633.00
45.8931 642.00
45.9583 619.00
46.0235 641.00
46.0887 636.00
46.1539 667.00
46.2191 645.00
46.2843 637.00
46.3495 662.00
46.4147 664.00
46.4799 757.00
46.5451 660.00
46.6103 635.00
46.6755 656.00
46.7407 617.00
46.8059 636.00
46.8711 564.00
46.9363 620.00
47.0015 614.00
47.0667 652.00
47.1319 639.00
47.1971 622.00
47.2623 613.00
47.3275 675.00
47.3927 638.00
47.4579 643.00
47.523 613.00
47.5882 632.00
47.6534 618.00
47.7186 620.00
47.7838 667.00
47.849 613.00
47.9142 596.00
47.9794 620.00
48.0446 615.00
48.1098 584.00
48.175 636.00
48.2402 625.00
48.3054 661.00
48.3706 667.00
48.4358 666.00
48.501 620.00
48.5662 661.00
48.6314 669.00
48.6966 649.00
48.7618 663.00
48.827 629.00
48.8922 677.00
48.9574 669.00
49.0226 650.00
49.0878 752.00
49.153 662.00
49.2182 675.00
49.2834 653.00
49.3486 728.00
49.4138 675.00
49.479 729.00
49.5442 687.00
49.6094 749.00
49.6746 762.00
49.7398 885.00
49.805 908.00
49.8702 977.00
49.9354 1204.00
50.0006 1829.00
50.0658 3193.00
50.131 3327.00
50.1962 2422.00
50.2614 2045.00
50.3266 1047.00
50.3918 818.00
50.457 718.00
50.5222 674.00
50.5874 685.00
50.6526 659.00
50.7178 614.00
50.783 580.00
50.8482 584.00
50.9134 588.00
50.9786 640.00
51.0438 595.00
51.109 656.00
51.1742 639.00
51.2394 638.00
51.3046 622.00
51.3698 593.00
51.435 658.00
51.5002 648.00
51.5654 620.00
51.6306 574.00
51.6958 640.00
51.761 628.00
51.8262 612.00
51.8914 598.00
51.9566 644.00
52.0218 586.00
52.087 599.00
52.1522 603.00
52.2174 662.00
52.2826 603.00
52.3477 664.00
52.4129 620.00
52.4781 643.00
52.5433 643.00
52.6085 735.00
52.6737 825.00
52.7389 789.00
52.8041 841.00
52.8693 729.00
52.9345 685.00
52.9997 671.00
53.0649 625.00
53.1301 619.00
53.1953 578.00
53.2605 648.00
53.3257 634.00
53.3909 633.00
53.4561 641.00
53.5213 681.00
53.5865 681.00
53.6517 702.00
53.7169 764.00
53.7821 788.00
53.8473 851.00
53.9125 1056.00
53.9777 1256.00
54.0429 1888.00
54.1081 3464.00
54.1733 7214.00
54.2385 8055.00
54.3037 5453.00
54.3689 4920.00
54.4341 2546.00
54.4993 1380.00
54.5645 998.00
54.6297 854.00
54.6949 727.00
54.7601 686.00
54.8253 652.00
54.8905 658.00
54.9557 670.00
55.0209 609.00
55.0861 668.00
55.1513 632.00
55.2165 609.00
55.2817 649.00
55.3469 686.00
55.4121 648.00
55.4773 617.00
55.5425 678.00
55.6077 613.00
55.6729 585.00
55.7381 603.00
55.8033 590.00
55.8685 625.00
55.9337 628.00
55.9989 631.00
56.0641 593.00
56.1293 628.00
56.1945 574.00
56.2597 597.00
56.3249 585.00
56.3901 584.00
56.4553 606.00
56.5205 561.00
56.5857 575.00
56.6509 631.00
56.7161 611.00
56.7813 651.00
56.8465 592.00
56.9117 604.00
56.9769 695.00
57.042 670.00
57.1073 649.00
57.1724 636.00
57.2376 652.00
57.3028 656.00
57.368 635.00
57.4332 632.00
57.4984 606.00
57.5636 612.00
57.6288 580.00
57.694 613.00
57.7592 663.00
57.8244 645.00
57.8896 642.00
57.9548 623.00
58.02 638.00
58.0852 696.00
58.1504 663.00
58.2156 688.00
58.2808 690.00
58.346 756.00
58.4112 725.00
58.4764 762.00
58.5416 897.00
58.6068 1079.00
58.672 1091.00
58.7372 934.00
58.8024 948.00
58.8676 813.00
58.9328 666.00
58.998 634.00
59.0632 650.00
59.1284 655.00
59.1936 648.00
59.2588 633.00
59.324 639.00
59.3892 640.00
59.4544 597.00
59.5196 613.00
59.5848 656.00
59.65 595.00
59.7152 597.00
59.7804 645.00
59.8456 638.00
59.9108 620.00
59.976 534.00
60.0412 622.00
60.1064 594.00
60.1716 568.00
60.2368 617.00
60.302 565.00
60.3672 576.00
60.4324 577.00
60.4976 564.00
60.5628 548.00
60.628 545.00
60.6932 606.00
60.7584 607.00
60.8236 588.00
60.8888 536.00
60.954 619.00
61.0192 613.00
61.0844 552.00
61.1496 588.00
61.2148 603.00
61.28 574.00
61.3452 569.00
61.4104 535.00
61.4756 593.00
61.5408 569.00
61.606 589.00
61.6712 614.00
61.7364 568.00
61.8016 583.00
61.8667 589.00
61.932 628.00
61.9971 580.00
62.0623 542.00
62.1275 616.00
62.1927 610.00
62.2579 602.00
62.3231 631.00
62.3883 581.00
62.4535 583.00
62.5187 571.00
62.5839 609.00
62.6491 577.00
62.7143 609.00
62.7795 589.00
62.8447 606.00
62.9099 605.00
62.9751 682.00
63.0403 675.00
63.1055 705.00
63.1707 861.00
63.2359 1008.00
63.3011 1442.00
63.3663 2258.00
63.4315 2412.00
63.4967 1849.00
63.5619 1731.00
63.6271 1394.00
63.6923 943.00
63.7575 722.00
63.8227 663.00
63.8879 586.00
63.9531 626.00
64.0183 569.00
64.0835 637.00
64.1487 586.00
64.2139 584.00
64.2791 574.00
64.3443 607.00
64.4095 605.00
64.4747 618.00
64.5399 614.00
64.6051 601.00
64.6703 633.00
64.7355 622.00
64.8007 635.00
64.8659 603.00
64.9311 699.00
64.9963 711.00
65.0615 704.00
65.1267 760.00
65.1919 920.00
65.2571 1033.00
65.3223 1557.00
65.3875 2515.00
65.4527 3174.00
65.5179 2334.00
65.5831 2122.00
65.6483 1995.00
65.7135 1218.00
65.7787 904.00
65.8439 673.00
65.9091 651.00
65.9743 628.00
66.0395 592.00
66.1047 578.00
66.1699 588.00
66.2351 546.00
66.3003 568.00
66.3655 571.00
66.4307 581.00
66.4959 550.00
66.561 574.00
66.6263 539.00
66.6915 594.00
66.7566 520.00
66.8218 549.00
66.887 565.00
66.9522 517.00
67.0174 541.00
67.0826 572.00
67.1478 532.00
67.213 547.00
67.2782 535.00
67.3434 579.00
67.4086 516.00
67.4738 558.00
67.539 584.00
67.6042 535.00
67.6694 560.00
67.7346 533.00
67.7998 581.00
67.865 573.00
67.9302 531.00
67.9954 545.00
68.0606 576.00
68.1258 527.00
68.191 615.00
68.2562 537.00
68.3214 580.00
68.3866 566.00
68.4518 583.00
68.517 573.00
68.5822 577.00
68.6474 553.00
68.7126 555.00
68.7778 625.00
68.843 542.00
68.9082 542.00
68.9734 560.00
69.0386 534.00
69.1038 564.00
69.169 533.00
69.2342 602.00
69.2994 578.00
69.3646 565.00
69.4298 554.00
69.495 519.00
69.5602 558.00
69.6254 565.00
69.6906 597.00
69.7558 594.00
69.821 550.00
69.8862 549.00
69.9514 579.00
70.0166 549.00
70.0818 553.00
70.147 581.00
70.2122 548.00
70.2774 603.00
70.3426 536.00
70.4078 581.00
70.473 604.00
70.5382 565.00
70.6034 614.00
70.6686 622.00
70.7338 673.00
70.799 816.00
70.8642 1091.00
70.9294 1509.00
70.9946 1533.00
71.0598 1272.00
71.125 1164.00
71.1902 1183.00
71.2554 890.00
71.3205 736.00
71.3858 634.00
71.451 607.00
71.5162 592.00
71.5813 574.00
71.6465 560.00
71.7117 694.00
71.7769 728.00
71.8421 727.00
71.9073 723.00
71.9725 677.00
72.0377 667.00
72.1029 585.00
72.1681 601.00
72.2333 583.00
72.2985 530.00
72.3637 527.00
72.4289 572.00
72.4941 539.00
72.5593 508.00
72.6245 535.00
72.6897 550.00
72.7549 508.00
72.8201 531.00
72.8853 510.00
72.9505 554.00
73.0157 504.00
73.0809 536.00
73.1461 488.00
73.2113 531.00
73.2765 521.00
73.3417 542.00
73.4069 541.00
73.4721 542.00
73.5373 521.00
73.6025 499.00
73.6677 517.00
73.7329 536.00
73.7981 524.00
73.8633 538.00
73.9285 523.00
73.9937 495.00
74.0589 547.00
74.1241 593.00
74.1893 524.00
74.2545 533.00
74.3197 500.00
74.3849 493.00
74.4501 528.00
74.5153 522.00
74.5805 471.00
74.6457 527.00
74.7109 558.00
74.7761 470.00
74.8413 501.00
74.9065 527.00
74.9717 543.00
75.0369 489.00
75.1021 524.00
75.1673 527.00
75.2325 537.00
75.2977 541.00
75.3629 533.00
75.4281 481.00
75.4933 558.00
75.5585 539.00
75.6237 576.00
75.6889 577.00
75.7541 538.00
75.8193 552.00
75.8845 518.00
75.9497 537.00
76.0149 525.00
76.0801 499.00
76.1452 503.00
76.2104 528.00
76.2756 501.00
76.3409 466.00
76.406 553.00
76.4712 514.00
76.5364 530.00
76.6016 567.00
76.6668 512.00
76.732 607.00
76.7972 585.00
76.8624 605.00
76.9276 617.00
76.9928 677.00
77.058 745.00
77.1232 906.00
77.1884 937.00
77.2536 816.00
77.3188 756.00
77.384 779.00
77.4492 669.00
77.5144 605.00
77.5796 557.00
77.6448 556.00
77.71 548.00
77.7752 529.00
77.8404 513.00
77.9056 515.00
77.9708 521.00
78.036 524.00
78.1012 562.00
78.1664 531.00
78.2316 536.00
78.2968 580.00
78.362 570.00
78.4272 590.00
78.4924 783.00
78.5576 847.00
78.6228 805.00
78.688 757.00
78.7532 691.00
78.8184 737.00
78.8836 743.00
78.9488 606.00
79.014 572.00
79.0792 551.00
79.1444 509.00
79.2096 527.00
79.2748 530.00
79.34 546.00
79.4052 527.00
79.4704 521.00
79.5356 531.00
79.6008 509.00
79.666 501.00
79.7312 525.00
79.7964 456.00
79.8616 544.00
79.9268 550.00
79.992 500.00
80.0572 527.00
80.1224 543.00
80.1876 520.00
80.2528 565.00
80.318 601.00
80.3832 611.00
80.4484 572.00
80.5136 593.00
80.5788 560.00
80.644 557.00
80.7092 558.00
80.7744 503.00
80.8396 486.00
80.9048 499.00
80.9699 522.00
81.0351 514.00
81.1003 542.00
81.1655 516.00
81.2307 570.00
81.2959 540.00
81.3611 549.00
81.4263 486.00
81.4915 530.00
81.5567 552.00
81.6219 558.00
81.6871 529.00
81.7523 578.00
81.8175 523.00
81.8827 544.00
81.9479 590.00
82.0131 533.00
82.0783 590.00
82.1435 646.00
82.2087 723.00
82.2739 989.00
82.3391 1182.00
82.4043 1111.00
82.4695 866.00
82.5347 944.00
82.5999 930.00
82.6651 778.00
82.7303 731.00
82.7955 692.00
82.8607 735.00
82.9259 624.00
82.9911 601.00
83.0563 635.00
83.1215 580.00
83.1867 596.00
83.2519 546.00
83.3171 536.00
83.3823 508.00
83.4475 540.00
83.5127 504.00
83.5779 520.00
83.6431 533.00
83.7083 475.00
83.7735 522.00
83.8387 526.00
83.9039 509.00
83.9691 502.00
84.0343 552.00
84.0995 514.00
84.1647 490.00
84.2299 558.00
84.2951 470.00
84.3603 549.00
84.4255 492.00
84.4907 485.00
84.5559 490.00
84.6211 552.00
84.6863 484.00
84.7515 496.00
84.8167 495.00
84.8819 466.00
84.9471 518.00
85.0123 483.00
85.0775 504.00
85.1427 497.00
85.2079 489.00
85.2731 493.00
85.3383 545.00
85.4035 542.00
85.4687 489.00
85.5339 488.00
85.5991 526.00
85.6643 478.00
85.7295 499.00
85.7946 506.00
85.8598 479.00
85.925 497.00
85.9903 536.00
86.0554 522.00
86.1206 574.00
86.1858 517.00
86.251 589.00
86.3162 623.00
86.3814 719.00
86.4466 896.00
86.5118 937.00
86.577 796.00
86.6422 765.00
86.7074 716.00
86.7726 734.00
86.8378 708.00
86.903 611.00
86.9682 563.00
87.0334 513.00
87.0986 536.00
87.1638 478.00
87.229 502.00
87.2942 516.00
87.3594 566.00
87.4246 534.00
87.4898 528.00
87.555 499.00
87.6202 556.00
87.6854 506.00
87.7506 509.00
87.8158 514.00
87.881 505.00
87.9462 476.00
88.0114 474.00
88.0766 499.00
88.1418 523.00
88.207 526.00
88.2722 512.00
88.3374 469.00
88.4026 509.00
88.4678 571.00
88.533 515.00
88.5982 561.00
88.6634 525.00
88.7286 475.00
88.7938 480.00
88.859 516.00
88.9242 501.00
88.9894 488.00
89.0546 493.00
89.1198 536.00
89.185 598.00
89.2502 554.00
89.3154 581.00
89.3806 621.00
89.4458 607.00
89.511 725.00
89.5762 836.00
89.6414 1047.00
89.7066 1334.00
89.7718 1403.00
89.837 1115.00
89.9022 946.00
89.9674 998.00
90.0326 968.00
90.0978 842.00
90.163 699.00
90.2282 609.00
90.2934 558.00
90.3586 508.00
90.4238 570.00
90.489 535.00
90.5542 536.00
90.6193 473.00
90.6845 483.00
90.7497 523.00
90.8149 497.00
90.8801 521.00
90.9453 489.00
91.0105 453.00
91.0757 534.00
91.1409 500.00
91.2061 491.00
91.2713 479.00
91.3365 501.00
91.4017 520.00
91.4669 482.00
91.5321 534.00
91.5973 458.00
91.6625 508.00
91.7277 518.00
91.7929 489.00
91.8581 525.00
91.9233 519.00
91.9885 502.00
92.0537 520.00
92.1189 493.00
92.1841 508.00
92.2493 513.00
92.3145 499.00
92.3797 480.00
92.4449 493.00
92.5101 527.00
92.5753 505.00
92.6405 486.00
92.7057 506.00
92.7709 498.00
92.8361 551.00
92.9013 507.00
92.9665 533.00
93.0317 517.00
93.0969 558.00
93.1621 580.00
93.2273 710.00
93.2925 804.00
93.3577 1034.00
93.4229 1254.00
93.4881 1184.00
93.5533 990.00
93.6185 886.00
93.6837 952.00
93.7489 937.00
93.8141 942.00
93.8793 768.00
93.9445 704.00
94.0097 696.00
94.0749 565.00
94.1401 600.00
94.2053 603.00
94.2705 546.00
94.3357 548.00
94.4009 508.00
94.4661 532.00
94.5313 540.00
94.5965 492.00
94.6617 507.00
94.7269 528.00
94.7921 490.00
94.8573 524.00
94.9225 542.00
94.9877 531.00
95.0529 489.00
95.1181 515.00
95.1833 542.00
95.2485 523.00
95.3137 510.00
95.3789 483.00
95.444 508.00
95.5092 520.00
95.5744 511.00
95.6396 494.00
95.7048 531.00
95.77 482.00
95.8352 504.00
95.9004 511.00
95.9656 464.00
96.0308 554.00
96.096 536.00
96.1612 474.00
96.2264 524.00
96.2916 490.00
96.3568 504.00
96.422 498.00
96.4872 481.00
96.5524 527.00
96.6176 500.00
96.6828 509.00
96.748 480.00
96.8132 520.00
96.8784 505.00
96.9436 502.00
97.0088 518.00
97.074 569.00
97.1392 505.00
97.2044 513.00
97.2696 525.00
97.3348 548.00
97.4 592.00
97.4652 535.00
97.5304 607.00
97.5956 607.00
97.6608 608.00
97.726 589.00
97.7912 595.00
97.8564 577.00
97.9216 537.00
97.9868 538.00
98.052 499.00
98.1172 520.00
98.1824 536.00
98.2476 488.00
98.3128 469.00
98.378 513.00
98.4432 521.00
98.5084 548.00
98.5736 492.00
98.6388 467.00
98.704 490.00
98.7692 503.00
98.8344 478.00
98.8996 514.00
98.9648 523.00
99.03 496.00
99.0952 501.00
99.1604 518.00
99.2256 490.00
99.2908 505.00
99.356 491.00
99.4212 497.00
99.4864 483.00
99.5516 513.00
99.6168 552.00
99.682 488.00
99.7472 495.00
99.8124 510.00
99.8776 479.00
99.9428 485.00
100.008 498.00
100.073 542.00
100.095 529.00