File: data/xrd_creation/results/PG_2652-1.xy
9.903433 2721.00
9.968632 2687.00
10.0338 2695.00
10.099 2684.00
10.1642 2707.00
10.2294 2670.00
10.2946 2624.00
10.3598 2595.00
10.425 2544.00
10.4902 2475.00
10.5554 2603.00
10.6206 2596.00
10.6858 2490.00
10.751 2413.00
10.8162 2511.00
10.8814 2395.00
10.9466 2362.00
11.0118 2316.00
11.077 2357.00
11.1422 2364.00
11.2074 2322.00
11.2726 2325.00
11.3378 2400.00
11.403 2288.00
11.4682 2376.00
11.5334 2357.00
11.5986 2320.00
11.6638 2283.00
11.729 2188.00
11.7942 2198.00
11.8594 2221.00
11.9246 2213.00
11.9898 2139.00
12.055 2167.00
12.1202 2156.00
12.1854 2113.00
12.2506 2128.00
12.3158 2159.00
12.381 2087.00
12.4462 2076.00
12.5114 2072.00
12.5766 2110.00
12.6418 2103.00
12.707 2093.00
12.7722 2042.00
12.8374 2059.00
12.9026 2006.00
12.9678 2009.00
13.033 2076.00
13.0982 2082.00
13.1634 2025.00
13.2286 2003.00
13.2938 1947.00
13.359 2036.00
13.4242 1992.00
13.4894 1974.00
13.5546 1902.00
13.6198 1914.00
13.685 1945.00
13.7502 1990.00
13.8154 1925.00
13.8805 1897.00
13.9457 1957.00
14.0109 1897.00
14.0761 1935.00
14.1413 1933.00
14.2065 1930.00
14.2717 1859.00
14.3369 1920.00
14.4021 1823.00
14.4673 1842.00
14.5325 1948.00
14.5977 1957.00
14.6629 1818.00
14.7281 1880.00
14.7933 1919.00
14.8585 1868.00
14.9237 1877.00
14.9889 1793.00
15.0541 1831.00
15.1193 1825.00
15.1845 1845.00
15.2497 1889.00
15.3149 1782.00
15.3801 1882.00
15.4453 1830.00
15.5105 1836.00
15.5757 1821.00
15.6409 1750.00
15.7061 1820.00
15.7713 1807.00
15.8365 1831.00
15.9017 1795.00
15.9669 1780.00
16.0321 1807.00
16.0973 1812.00
16.1625 1843.00
16.2277 1756.00
16.2929 1742.00
16.3581 1771.00
16.4233 1811.00
16.4885 1678.00
16.5537 1815.00
16.6189 1640.00
16.6841 1746.00
16.7493 1706.00
16.8145 1671.00
16.8797 1687.00
16.9449 1782.00
17.0101 1723.00
17.0753 1725.00
17.1405 1741.00
17.2057 1781.00
17.2709 1693.00
17.3361 1773.00
17.4013 1895.00
17.4665 1908.00
17.5317 1762.00
17.5969 1762.00
17.6621 1671.00
17.7273 1675.00
17.7925 1734.00
17.8577 1752.00
17.9229 1735.00
17.9881 1810.00
18.0533 1784.00
18.1185 1739.00
18.1837 1614.00
18.2489 1698.00
18.3141 1576.00
18.3793 1666.00
18.4445 1644.00
18.5097 1663.00
18.5749 1603.00
18.6401 1632.00
18.7052 1597.00
18.7704 1657.00
18.8356 1572.00
18.9008 1612.00
18.966 1574.00
19.0312 1556.00
19.0964 1574.00
19.1616 1559.00
19.2268 1553.00
19.292 1605.00
19.3572 1533.00
19.4224 1581.00
19.4876 1510.00
19.5528 1567.00
19.618 1545.00
19.6832 1609.00
19.7484 1543.00
19.8136 1533.00
19.8788 1533.00
19.944 1608.00
20.0092 1420.00
20.0744 1512.00
20.1396 1590.00
20.2048 1503.00
20.27 1518.00
20.3352 1484.00
20.4004 1551.00
20.4656 1531.00
20.5308 1474.00
20.596 1510.00
20.6612 1449.00
20.7264 1484.00
20.7916 1535.00
20.8568 1428.00
20.922 1449.00
20.9872 1506.00
21.0524 1526.00
21.1176 1443.00
21.1828 1512.00
21.248 1510.00
21.3132 1467.00
21.3784 1396.00
21.4436 1528.00
21.5088 1556.00
21.574 1461.00
21.6392 1492.00
21.7044 1486.00
21.7696 1433.00
21.8348 1467.00
21.9 1403.00
21.9652 1495.00
22.0304 1460.00
22.0956 1466.00
22.1608 1436.00
22.226 1404.00
22.2912 1504.00
22.3564 1444.00
22.4216 1339.00
22.4868 1410.00
22.552 1453.00
22.6172 1420.00
22.6824 1447.00
22.7476 1455.00
22.8128 1386.00
22.878 1390.00
22.9432 1446.00
23.0084 1423.00
23.0736 1376.00
23.1388 1451.00
23.204 1329.00
23.2692 1426.00
23.3344 1369.00
23.3996 1427.00
23.4647 1350.00
23.5299 1502.00
23.5951 1466.00
23.6603 1354.00
23.7255 1411.00
23.7907 1441.00
23.8559 1528.00
23.9211 1600.00
23.9863 1854.00
24.0515 1951.00
24.1167 1892.00
24.1819 1725.00
24.2471 1662.00
24.3123 1643.00
24.3775 1664.00
24.4427 1860.00
24.5079 1746.00
24.5731 1717.00
24.6383 1567.00
24.7035 1477.00
24.7687 1442.00
24.8339 1417.00
24.8991 1375.00
24.9643 1360.00
25.0295 1353.00
25.0947 1392.00
25.1599 1371.00
25.2251 1358.00
25.2903 1393.00
25.3555 1412.00
25.4207 1380.00
25.4859 1413.00
25.5511 1374.00
25.6163 1388.00
25.6815 1438.00
25.7467 1392.00
25.8119 1389.00
25.8771 1312.00
25.9423 1285.00
26.0075 1353.00
26.0727 1326.00
26.1379 1311.00
26.2031 1346.00
26.2683 1366.00
26.3335 1365.00
26.3987 1309.00
26.4639 1383.00
26.5291 1375.00
26.5943 1394.00
26.6595 1285.00
26.7247 1365.00
26.7899 1321.00
26.8551 1309.00
26.9203 1279.00
26.9855 1320.00
27.0507 1306.00
27.1159 1244.00
27.1811 1326.00
27.2463 1313.00
27.3115 1352.00
27.3767 1284.00
27.4419 1226.00
27.5071 1305.00
27.5723 1362.00
27.6375 1297.00
27.7027 1343.00
27.7679 1413.00
27.8331 1410.00
27.8983 1536.00
27.9635 1832.00
28.0287 2373.00
28.0939 3367.00
28.1591 4749.00
28.2243 5041.00
28.2894 4499.00
28.3546 3257.00
28.4198 2233.00
28.485 1764.00
28.5502 1519.00
28.6154 1391.00
28.6806 1387.00
28.7458 1421.00
28.811 1519.00
28.8762 1654.00
28.9414 1667.00
29.0066 1555.00
29.0718 1411.00
29.137 1324.00
29.2022 1315.00
29.2674 1273.00
29.3326 1230.00
29.3978 1302.00
29.463 1268.00
29.5282 1257.00
29.5934 1216.00
29.6586 1271.00
29.7238 1254.00
29.789 1261.00
29.8542 1293.00
29.9194 1201.00
29.9846 1200.00
30.0498 1273.00
30.115 1241.00
30.1802 1246.00
30.2454 1268.00
30.3106 1243.00
30.3758 1302.00
30.441 1293.00
30.5062 1183.00
30.5714 1229.00
30.6366 1215.00
30.7018 1218.00
30.767 1296.00
30.8322 1294.00
30.8974 1350.00
30.9626 1415.00
31.0278 1477.00
31.093 1516.00
31.1582 1514.00
31.2234 1663.00
31.2886 1898.00
31.3538 2633.00
31.419 3531.00
31.4842 4106.00
31.5494 3573.00
31.6146 2835.00
31.6798 2035.00
31.745 1525.00
31.8102 1379.00
31.8754 1339.00
31.9406 1366.00
32.0058 1258.00
32.071 1344.00
32.1362 1395.00
32.2014 1586.00
32.2666 1951.00
32.3318 2035.00
32.397 1848.00
32.4622 1608.00
32.5274 1456.00
32.5926 1276.00
32.6578 1256.00
32.723 1309.00
32.7882 1227.00
32.8534 1239.00
32.9186 1249.00
32.9838 1213.00
33.0489 1214.00
33.1141 1195.00
33.1793 1202.00
33.2445 1138.00
33.3097 1161.00
33.3749 1185.00
33.4401 1184.00
33.5053 1199.00
33.5705 1254.00
33.6357 1206.00
33.7009 1242.00
33.7661 1269.00
33.8313 1255.00
33.8965 1353.00
33.9617 1458.00
34.0269 1698.00
34.0921 1955.00
34.1573 2051.00
34.2225 1910.00
34.2877 1746.00
34.3529 1709.00
34.4181 1706.00
34.4833 1726.00
34.5485 1589.00
34.6137 1482.00
34.6789 1319.00
34.7441 1220.00
34.8093 1212.00
34.8745 1193.00
34.9397 1310.00
35.0049 1211.00
35.0701 1258.00
35.1353 1350.00
35.2005 1502.00
35.2657 1691.00
35.3309 1794.00
35.3961 1724.00
35.4613 1512.00
35.5265 1385.00
35.5917 1265.00
35.6569 1251.00
35.7221 1301.00
35.7873 1346.00
35.8525 1324.00
35.9177 1469.00
35.9829 1787.00
36.0481 2092.00
36.1133 2401.00
36.1785 2260.00
36.2437 1771.00
36.3089 1580.00
36.3741 1334.00
36.4393 1315.00
36.5045 1259.00
36.5697 1282.00
36.6349 1219.00
36.7001 1170.00
36.7653 1149.00
36.8305 1102.00
36.8957 1202.00
36.9609 1109.00
37.0261 1177.00
37.0913 1144.00
37.1565 1114.00
37.2217 1199.00
37.2869 1115.00
37.3521 1091.00
37.4173 1167.00
37.4825 1150.00
37.5477 1134.00
37.6129 1179.00
37.6781 1118.00
37.7433 1149.00
37.8085 1259.00
37.8736 1281.00
37.9388 1372.00
38.004 1357.00
38.0692 1401.00
38.1344 1224.00
38.1996 1153.00
38.2648 1110.00
38.33 1125.00
38.3952 1174.00
38.4604 1229.00
38.5256 1333.00
38.5908 1361.00
38.656 1367.00
38.7212 1324.00
38.7864 1270.00
38.8516 1112.00
38.9168 1137.00
38.982 1103.00
39.0472 1138.00
39.1124 1157.00
39.1776 1178.00
39.2428 1178.00
39.308 1222.00
39.3732 1180.00
39.4384 1129.00
39.5036 1138.00
39.5688 1130.00
39.634 1168.00
39.6992 1143.00
39.7644 1190.00
39.8296 1092.00
39.8948 1194.00
39.96 1088.00
40.0252 1170.00
40.0904 1099.00
40.1556 1170.00
40.2208 1127.00
40.286 1106.00
40.3512 1194.00
40.4164 1149.00
40.4816 1144.00
40.5468 1251.00
40.612 1376.00
40.6772 1594.00
40.7424 1842.00
40.8076 1699.00
40.8728 1690.00
40.938 1407.00
41.0032 1330.00
41.0684 1404.00
41.1336 1387.00
41.1988 1323.00
41.264 1299.00
41.3292 1335.00
41.3944 1377.00
41.4596 1356.00
41.5248 1350.00
41.59 1230.00
41.6552 1172.00
41.7204 1126.00
41.7856 1113.00
41.8508 1116.00
41.916 1155.00
41.9812 1138.00
42.0464 1136.00
42.1116 1125.00
42.1768 1077.00
42.242 1061.00
42.3072 1139.00
42.3724 1112.00
42.4376 1078.00
42.5028 1109.00
42.568 1079.00
42.6332 1103.00
42.6983 1131.00
42.7635 1122.00
42.8287 1132.00
42.8939 1195.00
42.9591 1145.00
43.0243 1117.00
43.0895 1123.00
43.1547 1074.00
43.2199 1132.00
43.2851 1056.00
43.3503 1047.00
43.4155 1058.00
43.4807 1115.00
43.5459 1125.00
43.6111 1167.00
43.6763 1112.00
43.7415 1104.00
43.8067 1138.00
43.8719 1090.00
43.9371 1117.00
44.0023 1092.00
44.0675 1126.00
44.1327 1131.00
44.1979 1098.00
44.2631 1149.00
44.3283 1288.00
44.3935 1368.00
44.4587 1403.00
44.5239 1357.00
44.5891 1338.00
44.6543 1322.00
44.7195 1403.00
44.7847 1445.00
44.8499 1509.00
44.9151 1393.00
44.9803 1309.00
45.0455 1261.00
45.1107 1150.00
45.1759 1181.00
45.2411 1219.00
45.3063 1170.00
45.3715 1276.00
45.4367 1374.00
45.5019 1456.00
45.5671 1437.00
45.6323 1358.00
45.6975 1293.00
45.7627 1248.00
45.8279 1175.00
45.8931 1121.00
45.9583 1138.00
46.0235 1140.00
46.0887 1050.00
46.1539 1021.00
46.2191 1138.00
46.2843 1090.00
46.3495 1066.00
46.4147 1061.00
46.4799 1043.00
46.5451 1112.00
46.6103 1108.00
46.6755 1044.00
46.7407 1083.00
46.8059 1070.00
46.8711 1052.00
46.9363 1136.00
47.0015 1071.00
47.0667 1128.00
47.1319 1147.00
47.1971 1096.00
47.2623 1058.00
47.3275 1062.00
47.3927 1071.00
47.4579 1073.00
47.523 1092.00
47.5882 1095.00
47.6534 1120.00
47.7186 1082.00
47.7838 1080.00
47.849 1093.00
47.9142 1053.00
47.9794 1075.00
48.0446 1152.00
48.1098 1111.00
48.175 1048.00
48.2402 1179.00
48.3054 1130.00
48.3706 1132.00
48.4358 1102.00
48.501 1127.00
48.5662 1114.00
48.6314 1086.00
48.6966 1135.00
48.7618 1087.00
48.827 1220.00
48.8922 1184.00
48.9574 1239.00
49.0226 1333.00
49.0878 1492.00
49.153 1569.00
49.2182 1936.00
49.2834 2100.00
49.3486 2036.00
49.4138 1904.00
49.479 1547.00
49.5442 1353.00
49.6094 1259.00
49.6746 1277.00
49.7398 1239.00
49.805 1293.00
49.8702 1307.00
49.9354 1367.00
50.0006 1538.00
50.0658 2053.00
50.131 2354.00
50.1962 2407.00
50.2614 2136.00
50.3266 1867.00
50.3918 1678.00
50.457 1632.00
50.5222 1734.00
50.5874 2017.00
50.6526 2094.00
50.7178 1884.00
50.783 1739.00
50.8482 1454.00
50.9134 1322.00
50.9786 1228.00
51.0438 1203.00
51.109 1314.00
51.1742 1316.00
51.2394 1449.00
51.3046 1377.00
51.3698 1344.00
51.435 1250.00
51.5002 1162.00
51.5654 1157.00
51.6306 1097.00
51.6958 1076.00
51.761 1118.00
51.8262 1101.00
51.8914 1115.00
51.9566 1076.00
52.0218 1094.00
52.087 1158.00
52.1522 1076.00
52.2174 1126.00
52.2826 1102.00
52.3477 1140.00
52.4129 1141.00
52.4781 1093.00
52.5433 1114.00
52.6085 1128.00
52.6737 1092.00
52.7389 1027.00
52.8041 1118.00
52.8693 1160.00
52.9345 1059.00
52.9997 1069.00
53.0649 1120.00
53.1301 1158.00
53.1953 1078.00
53.2605 1015.00
53.3257 1120.00
53.3909 1162.00
53.4561 1054.00
53.5213 1104.00
53.5865 1160.00
53.6517 1167.00
53.7169 1233.00
53.7821 1250.00
53.8473 1430.00
53.9125 1572.00
53.9777 1706.00
54.0429 1762.00
54.1081 1744.00
54.1733 1704.00
54.2385 1504.00
54.3037 1299.00
54.3689 1243.00
54.4341 1179.00
54.4993 1167.00
54.5645 1173.00
54.6297 1219.00
54.6949 1140.00
54.7601 1173.00
54.8253 1186.00
54.8905 1124.00
54.9557 1140.00
55.0209 1264.00
55.0861 1260.00
55.1513 1451.00
55.2165 1555.00
55.2817 1708.00
55.3469 1927.00
55.4121 1862.00
55.4773 1846.00
55.5425 1698.00
55.6077 1708.00
55.6729 1555.00
55.7381 1554.00
55.8033 1408.00
55.8685 1533.00
55.9337 1560.00
55.9989 1722.00
56.0641 1695.00
56.1293 1490.00
56.1945 1359.00
56.2597 1310.00
56.3249 1238.00
56.3901 1172.00
56.4553 1193.00
56.5205 1117.00
56.5857 1154.00
56.6509 1138.00
56.7161 1132.00
56.7813 1061.00
56.8465 1093.00
56.9117 1204.00
56.9769 1242.00
57.042 1303.00
57.1073 1439.00
57.1724 1532.00
57.2376 1563.00
57.3028 1535.00
57.368 1407.00
57.4332 1303.00
57.4984 1308.00
57.5636 1191.00
57.6288 1197.00
57.694 1172.00
57.7592 1262.00
57.8244 1369.00
57.8896 1342.00
57.9548 1387.00
58.02 1363.00
58.0852 1346.00
58.1504 1338.00
58.2156 1387.00
58.2808 1422.00
58.346 1419.00
58.4112 1524.00
58.4764 1586.00
58.5416 1545.00
58.6068 1591.00
58.672 1412.00
58.7372 1378.00
58.8024 1297.00
58.8676 1209.00
58.9328 1106.00
58.998 1128.00
59.0632 1188.00
59.1284 1113.00
59.1936 1145.00
59.2588 1159.00
59.324 1166.00
59.3892 1166.00
59.4544 1216.00
59.5196 1229.00
59.5848 1185.00
59.65 1360.00
59.7152 1665.00
59.7804 2166.00
59.8456 2365.00
59.9108 2453.00
59.976 2396.00
60.0412 2109.00
60.1064 1968.00
60.1716 1718.00
60.2368 1575.00
60.302 1396.00
60.3672 1213.00
60.4324 1281.00
60.4976 1225.00
60.5628 1221.00
60.628 1235.00
60.6932 1127.00
60.7584 1129.00
60.8236 1164.00
60.8888 1146.00
60.954 1141.00
61.0192 1170.00
61.0844 1195.00
61.1496 1208.00
61.2148 1374.00
61.28 1430.00
61.3452 1369.00
61.4104 1373.00
61.4756 1312.00
61.5408 1311.00
61.606 1226.00
61.6712 1209.00
61.7364 1194.00
61.8016 1342.00
61.8667 1345.00
61.932 1495.00
61.9971 1484.00
62.0623 1554.00
62.1275 1318.00
62.1927 1328.00
62.2579 1303.00
62.3231 1259.00
62.3883 1194.00
62.4535 1252.00
62.5187 1176.00
62.5839 1266.00
62.6491 1353.00
62.7143 1442.00
62.7795 1516.00
62.8447 1659.00
62.9099 1736.00
62.9751 1583.00
63.0403 1449.00
63.1055 1303.00
63.1707 1275.00
63.2359 1170.00
63.3011 1205.00
63.3663 1150.00
63.4315 1195.00
63.4967 1139.00
63.5619 1129.00
63.6271 1109.00
63.6923 1091.00
63.7575 1125.00
63.8227 1176.00
63.8879 1108.00
63.9531 1221.00
64.0183 1223.00
64.0835 1254.00
64.1487 1252.00
64.2139 1254.00
64.2791 1276.00
64.3443 1347.00
64.4095 1290.00
64.4747 1306.00
64.5399 1303.00
64.6051 1441.00
64.6703 1407.00
64.7355 1480.00
64.8007 1321.00
64.8659 1278.00
64.9311 1225.00
64.9963 1123.00
65.0615 1188.00
65.1267 1210.00
65.1919 1232.00
65.2571 1196.00
65.3223 1318.00
65.3875 1327.00
65.4527 1414.00
65.5179 1434.00
65.5831 1544.00
65.6483 1620.00
65.7135 1454.00
65.7787 1600.00
65.8439 1474.00
65.9091 1496.00
65.9743 1338.00
66.0395 1282.00
66.1047 1178.00
66.1699 1205.00
66.2351 1152.00
66.3003 1175.00
66.3655 1096.00
66.4307 1113.00
66.4959 1159.00
66.561 1145.00
66.6263 1171.00
66.6915 1020.00
66.7566 1064.00
66.8218 1166.00
66.887 1136.00
66.9522 1158.00
67.0174 1076.00
67.0826 1096.00
67.1478 1137.00
67.213 1146.00
67.2782 1077.00
67.3434 1069.00
67.4086 1142.00
67.4738 1124.00
67.539 1176.00
67.6042 1179.00
67.6694 1197.00
67.7346 1262.00
67.7998 1123.00
67.865 1098.00
67.9302 1170.00
67.9954 1144.00
68.0606 1149.00
68.1258 1125.00
68.191 1128.00
68.2562 1066.00
68.3214 1136.00
68.3866 1110.00
68.4518 1136.00
68.517 1084.00
68.5822 1105.00
68.6474 1085.00
68.7126 1176.00
68.7778 1209.00
68.843 1259.00
68.9082 1243.00
68.9734 1324.00
69.0386 1284.00
69.1038 1231.00
69.169 1205.00
69.2342 1198.00
69.2994 1191.00
69.3646 1151.00
69.4298 1163.00
69.495 1211.00
69.5602 1204.00
69.6254 1302.00
69.6906 1282.00
69.7558 1253.00
69.821 1198.00
69.8862 1155.00
69.9514 1198.00
70.0166 1241.00
70.0818 1096.00
70.147 1166.00
70.2122 1163.00
70.2774 1147.00
70.3426 1180.00
70.4078 1159.00
70.473 1138.00
70.5382 1244.00
70.6034 1173.00
70.6686 1149.00
70.7338 1153.00
70.799 1136.00
70.8642 1179.00
70.9294 1256.00
70.9946 1252.00
71.0598 1388.00
71.125 1413.00
71.1902 1450.00
71.2554 1358.00
71.3205 1407.00
71.3858 1323.00
71.451 1276.00
71.5162 1284.00
71.5813 1223.00
71.6465 1270.00
71.7117 1250.00
71.7769 1100.00
71.8421 1204.00
71.9073 1146.00
71.9725 1205.00
72.0377 1240.00
72.1029 1187.00
72.1681 1231.00
72.2333 1246.00
72.2985 1335.00
72.3637 1244.00
72.4289 1186.00
72.4941 1255.00
72.5593 1276.00
72.6245 1279.00
72.6897 1276.00
72.7549 1230.00
72.8201 1267.00
72.8853 1146.00
72.9505 1181.00
73.0157 1146.00
73.0809 1157.00
73.1461 1130.00
73.2113 1173.00
73.2765 1143.00
73.3417 1146.00
73.4069 1170.00
73.4721 1158.00
73.5373 1203.00
73.6025 1133.00
73.6677 1187.00
73.7329 1194.00
73.7981 1196.00
73.8633 1159.00
73.9285 1202.00
73.9937 1220.00
74.0589 1224.00
74.1241 1313.00
74.1893 1304.00
74.2545 1239.00
74.3197 1255.00
74.3849 1256.00
74.4501 1276.00
74.5153 1215.00
74.5805 1234.00
74.6457 1245.00
74.7109 1329.00
74.7761 1228.00
74.8413 1198.00
74.9065 1267.00
74.9717 1291.00
75.0369 1301.00
75.1021 1331.00
75.1673 1394.00
75.2325 1360.00
75.2977 1333.00
75.3629 1331.00
75.4281 1327.00
75.4933 1237.00
75.5585 1291.00
75.6237 1183.00
75.6889 1185.00
75.7541 1155.00
75.8193 1134.00
75.8845 1256.00
75.9497 1220.00
76.0149 1127.00
76.0801 1200.00
76.1452 1162.00
76.2104 1206.00
76.2756 1248.00
76.3409 1304.00
76.406 1341.00
76.4712 1307.00
76.5364 1349.00
76.6016 1306.00
76.6668 1242.00
76.732 1264.00
76.7972 1258.00
76.8624 1187.00
76.9276 1203.00
76.9928 1210.00
77.058 1154.00
77.1232 1190.00
77.1884 1175.00
77.2536 1189.00
77.3188 1333.00
77.384 1264.00
77.4492 1341.00
77.5144 1381.00
77.5796 1301.00
77.6448 1296.00
77.71 1292.00
77.7752 1265.00
77.8404 1197.00
77.9056 1191.00
77.9708 1235.00
78.036 1169.00
78.1012 1266.00
78.1664 1237.00
78.2316 1214.00
78.2968 1234.00
78.362 1243.00
78.4272 1161.00
78.4924 1184.00
78.5576 1211.00
78.6228 1171.00
78.688 1154.00
78.7532 1344.00
78.8184 1218.00
78.8836 1346.00
78.9488 1291.00
79.014 1315.00
79.0792 1322.00
79.1444 1367.00
79.2096 1173.00
79.2748 1227.00
79.34 1150.00
79.4052 1146.00
79.4704 1169.00
79.5356 1219.00
79.6008 1161.00
79.666 1189.00
79.7312 1167.00
79.7964 1151.00
79.8616 1157.00
79.9268 1178.00
79.992 1241.00
80.0572 1264.00
80.1224 1291.00
80.1876 1244.00
80.2528 1220.00
80.318 1277.00
80.3832 1259.00
80.4484 1201.00
80.5136 1338.00
80.5788 1280.00
80.644 1172.00
80.7092 1235.00
80.7744 1210.00
80.8396 1213.00
80.9048 1200.00
80.9699 1157.00
81.0351 1277.00
81.1003 1308.00
81.1655 1261.00
81.2307 1291.00
81.2959 1330.00
81.3611 1260.00
81.4263 1306.00
81.4915 1323.00
81.5567 1311.00
81.6219 1369.00
81.6871 1334.00
81.7523 1301.00
81.8175 1295.00
81.8827 1234.00
81.9479 1231.00
82.0131 1165.00
82.0783 1306.00
82.1435 1170.00
82.2087 1200.00
82.2739 1203.00
82.3391 1202.00
82.4043 1295.00
82.4695 1297.00
82.5347 1289.00
82.5999 1315.00
82.6651 1279.00
82.7303 1330.00
82.7955 1211.00
82.8607 1263.00
82.9259 1331.00
82.9911 1309.00
83.0563 1306.00
83.1215 1317.00
83.1867 1281.00
83.2519 1311.00
83.3171 1350.00
83.3823 1373.00
83.4475 1304.00
83.5127 1281.00
83.5779 1248.00
83.6431 1327.00
83.7083 1280.00
83.7735 1273.00
83.8387 1355.00
83.9039 1342.00
83.9691 1325.00
84.0343 1312.00
84.0995 1411.00
84.1647 1307.00
84.2299 1364.00
84.2951 1328.00
84.3603 1402.00
84.4255 1292.00
84.4907 1303.00
84.5559 1284.00
84.6211 1255.00
84.6863 1279.00
84.7515 1256.00
84.8167 1312.00
84.8819 1252.00
84.9471 1303.00
85.0123 1318.00
85.0775 1286.00
85.1427 1247.00
85.2079 1261.00
85.2731 1234.00
85.3383 1143.00
85.4035 1114.00
85.4687 1140.00
85.5339 1189.00
85.5991 1101.00
85.6643 1181.00
85.7295 1197.00
85.7946 1204.00
85.8598 1156.00
85.925 1147.00
85.9903 1232.00
86.0554 1298.00
86.1206 1307.00
86.1858 1227.00
86.251 1321.00
86.3162 1264.00
86.3814 1325.00
86.4466 1362.00
86.5118 1298.00
86.577 1282.00
86.6422 1286.00
86.7074 1198.00
86.7726 1253.00
86.8378 1175.00
86.903 1212.00
86.9682 1213.00
87.0334 1197.00
87.0986 1231.00
87.1638 1196.00
87.229 1308.00
87.2942 1254.00
87.3594 1322.00
87.4246 1292.00
87.4898 1273.00
87.555 1293.00
87.6202 1337.00
87.6854 1347.00
87.7506 1253.00
87.8158 1291.00
87.881 1357.00
87.9462 1352.00
88.0114 1361.00
88.0766 1349.00
88.1418 1471.00
88.207 1439.00
88.2722 1426.00
88.3374 1421.00
88.4026 1415.00
88.4678 1457.00
88.533 1397.00
88.5982 1353.00
88.6634 1363.00
88.7286 1323.00
88.7938 1215.00
88.859 1276.00
88.9242 1352.00
88.9894 1272.00
89.0546 1320.00
89.1198 1240.00
89.185 1244.00
89.2502 1262.00
89.3154 1211.00
89.3806 1280.00
89.4458 1393.00
89.511 1338.00
89.5762 1324.00
89.6414 1229.00
89.7066 1327.00
89.7718 1347.00
89.837 1389.00
89.9022 1388.00
89.9674 1398.00
90.0326 1326.00
90.0978 1328.00
90.163 1339.00
90.2282 1291.00
90.2934 1312.00
90.3586 1240.00
90.4238 1219.00
90.489 1285.00
90.5542 1320.00
90.6193 1293.00
90.6845 1328.00
90.7497 1379.00
90.8149 1322.00
90.8801 1287.00
90.9453 1271.00
91.0105 1387.00
91.0757 1373.00
91.1409 1278.00
91.2061 1315.00
91.2713 1268.00
91.3365 1219.00
91.4017 1249.00
91.4669 1289.00
91.5321 1222.00
91.5973 1290.00
91.6625 1244.00
91.7277 1270.00
91.7929 1199.00
91.8581 1172.00
91.9233 1221.00
91.9885 1183.00
92.0537 1194.00
92.1189 1286.00
92.1841 1187.00
92.2493 1161.00
92.3145 1169.00
92.3797 1177.00
92.4449 1207.00
92.5101 1179.00
92.5753 1209.00
92.6405 1203.00
92.7057 1215.00
92.7709 1266.00
92.8361 1297.00
92.9013 1234.00
92.9665 1287.00
93.0317 1237.00
93.0969 1249.00
93.1621 1286.00
93.2273 1311.00
93.2925 1230.00
93.3577 1184.00
93.4229 1170.00
93.4881 1263.00
93.5533 1253.00
93.6185 1238.00
93.6837 1264.00
93.7489 1349.00
93.8141 1308.00
93.8793 1257.00
93.9445 1263.00
94.0097 1364.00
94.0749 1297.00
94.1401 1225.00
94.2053 1302.00
94.2705 1305.00
94.3357 1254.00
94.4009 1279.00
94.4661 1241.00
94.5313 1269.00
94.5965 1294.00
94.6617 1212.00
94.7269 1346.00
94.7921 1354.00
94.8573 1289.00
94.9225 1294.00
94.9877 1282.00
95.0529 1326.00
95.1181 1241.00
95.1833 1327.00
95.2485 1376.00
95.3137 1326.00
95.3789 1357.00
95.444 1358.00
95.5092 1302.00
95.5744 1332.00
95.6396 1331.00
95.7048 1282.00
95.77 1307.00
95.8352 1272.00
95.9004 1332.00
95.9656 1287.00
96.0308 1408.00
96.096 1382.00
96.1612 1346.00
96.2264 1415.00
96.2916 1470.00
96.3568 1466.00
96.422 1521.00
96.4872 1622.00
96.5524 1545.00
96.6176 1570.00
96.6828 1573.00
96.748 1545.00
96.8132 1517.00
96.8784 1581.00
96.9436 1555.00
97.0088 1506.00
97.074 1435.00
97.1392 1402.00
97.2044 1302.00
97.2696 1283.00
97.3348 1310.00
97.4 1250.00
97.4652 1272.00
97.5304 1321.00
97.5956 1287.00
97.6608 1311.00
97.726 1260.00
97.7912 1241.00
97.8564 1278.00
97.9216 1361.00
97.9868 1300.00
98.052 1341.00
98.1172 1328.00
98.1824 1365.00
98.2476 1405.00
98.3128 1399.00
98.378 1334.00
98.4432 1394.00
98.5084 1410.00
98.5736 1431.00
98.6388 1424.00
98.704 1356.00
98.7692 1398.00
98.8344 1351.00
98.8996 1364.00
98.9648 1498.00
99.03 1419.00
99.0952 1400.00
99.1604 1430.00
99.2256 1439.00
99.2908 1433.00
99.356 1406.00
99.4212 1414.00
99.4864 1389.00
99.5516 1435.00
99.6168 1369.00
99.682 1407.00
99.7472 1370.00
99.8124 1353.00
99.8776 1284.00
99.9428 1345.00
100.008 1336.00
100.073 1363.00
100.095 1309.00