File: data/xrd_creation/results/PG_2445-1.xy
9.903433 2511.00
9.968632 2499.00
10.0338 2511.00
10.099 2449.00
10.1642 2429.00
10.2294 2419.00
10.2946 2345.00
10.3598 2349.00
10.425 2310.00
10.4902 2305.00
10.5554 2236.00
10.6206 2277.00
10.6858 2209.00
10.751 2189.00
10.8162 2198.00
10.8814 2244.00
10.9466 2098.00
11.0118 2161.00
11.077 2110.00
11.1422 2010.00
11.2074 2012.00
11.2726 2119.00
11.3378 2025.00
11.403 2028.00
11.4682 1913.00
11.5334 2025.00
11.5986 1950.00
11.6638 1872.00
11.729 1977.00
11.7942 1903.00
11.8594 1870.00
11.9246 1802.00
11.9898 1751.00
12.055 1752.00
12.1202 1709.00
12.1854 1790.00
12.2506 1742.00
12.3158 1747.00
12.381 1761.00
12.4462 1701.00
12.5114 1689.00
12.5766 1696.00
12.6418 1710.00
12.707 1592.00
12.7722 1600.00
12.8374 1580.00
12.9026 1637.00
12.9678 1616.00
13.033 1549.00
13.0982 1551.00
13.1634 1564.00
13.2286 1610.00
13.2938 1618.00
13.359 1546.00
13.4242 1558.00
13.4894 1528.00
13.5546 1570.00
13.6198 1567.00
13.685 1514.00
13.7502 1493.00
13.8154 1523.00
13.8805 1396.00
13.9457 1524.00
14.0109 1429.00
14.0761 1429.00
14.1413 1408.00
14.2065 1458.00
14.2717 1419.00
14.3369 1320.00
14.4021 1352.00
14.4673 1408.00
14.5325 1375.00
14.5977 1345.00
14.6629 1306.00
14.7281 1366.00
14.7933 1304.00
14.8585 1376.00
14.9237 1284.00
14.9889 1323.00
15.0541 1226.00
15.1193 1290.00
15.1845 1255.00
15.2497 1320.00
15.3149 1331.00
15.3801 1262.00
15.4453 1312.00
15.5105 1298.00
15.5757 1303.00
15.6409 1205.00
15.7061 1270.00
15.7713 1201.00
15.8365 1303.00
15.9017 1208.00
15.9669 1167.00
16.0321 1237.00
16.0973 1239.00
16.1625 1205.00
16.2277 1214.00
16.2929 1232.00
16.3581 1173.00
16.4233 1192.00
16.4885 1163.00
16.5537 1234.00
16.6189 1191.00
16.6841 1130.00
16.7493 1205.00
16.8145 1183.00
16.8797 1229.00
16.9449 1136.00
17.0101 1125.00
17.0753 1092.00
17.1405 1085.00
17.2057 1078.00
17.2709 1109.00
17.3361 1122.00
17.4013 1106.00
17.4665 1105.00
17.5317 1053.00
17.5969 1150.00
17.6621 1057.00
17.7273 1098.00
17.7925 1094.00
17.8577 1025.00
17.9229 1073.00
17.9881 1030.00
18.0533 1054.00
18.1185 1066.00
18.1837 1053.00
18.2489 1080.00
18.3141 1030.00
18.3793 1056.00
18.4445 1029.00
18.5097 1043.00
18.5749 1059.00
18.6401 977.00
18.7052 971.00
18.7704 1042.00
18.8356 933.00
18.9008 1033.00
18.966 982.00
19.0312 987.00
19.0964 918.00
19.1616 1006.00
19.2268 944.00
19.292 1008.00
19.3572 921.00
19.4224 957.00
19.4876 964.00
19.5528 976.00
19.618 895.00
19.6832 915.00
19.7484 959.00
19.8136 895.00
19.8788 905.00
19.944 983.00
20.0092 881.00
20.0744 931.00
20.1396 924.00
20.2048 866.00
20.27 909.00
20.3352 871.00
20.4004 913.00
20.4656 910.00
20.5308 834.00
20.596 890.00
20.6612 885.00
20.7264 898.00
20.7916 895.00
20.8568 828.00
20.922 848.00
20.9872 828.00
21.0524 838.00
21.1176 843.00
21.1828 761.00
21.248 805.00
21.3132 849.00
21.3784 896.00
21.4436 800.00
21.5088 850.00
21.574 860.00
21.6392 828.00
21.7044 808.00
21.7696 794.00
21.8348 861.00
21.9 805.00
21.9652 818.00
22.0304 833.00
22.0956 783.00
22.1608 770.00
22.226 788.00
22.2912 784.00
22.3564 783.00
22.4216 846.00
22.4868 822.00
22.552 777.00
22.6172 791.00
22.6824 738.00
22.7476 780.00
22.8128 776.00
22.878 803.00
22.9432 724.00
23.0084 710.00
23.0736 797.00
23.1388 725.00
23.204 733.00
23.2692 713.00
23.3344 753.00
23.3996 777.00
23.4647 759.00
23.5299 746.00
23.5951 738.00
23.6603 748.00
23.7255 746.00
23.7907 760.00
23.8559 732.00
23.9211 754.00
23.9863 740.00
24.0515 707.00
24.1167 738.00
24.1819 754.00
24.2471 695.00
24.3123 783.00
24.3775 719.00
24.4427 711.00
24.5079 690.00
24.5731 727.00
24.6383 716.00
24.7035 713.00
24.7687 662.00
24.8339 724.00
24.8991 664.00
24.9643 674.00
25.0295 702.00
25.0947 671.00
25.1599 711.00
25.2251 696.00
25.2903 710.00
25.3555 647.00
25.4207 678.00
25.4859 663.00
25.5511 694.00
25.6163 684.00
25.6815 631.00
25.7467 655.00
25.8119 627.00
25.8771 650.00
25.9423 698.00
26.0075 646.00
26.0727 623.00
26.1379 640.00
26.2031 658.00
26.2683 676.00
26.3335 704.00
26.3987 689.00
26.4639 707.00
26.5291 634.00
26.5943 683.00
26.6595 655.00
26.7247 641.00
26.7899 621.00
26.8551 654.00
26.9203 651.00
26.9855 641.00
27.0507 676.00
27.1159 632.00
27.1811 631.00
27.2463 616.00
27.3115 682.00
27.3767 603.00
27.4419 604.00
27.5071 601.00
27.5723 629.00
27.6375 610.00
27.7027 595.00
27.7679 631.00
27.8331 595.00
27.8983 658.00
27.9635 648.00
28.0287 661.00
28.0939 624.00
28.1591 653.00
28.2243 543.00
28.2894 646.00
28.3546 619.00
28.4198 561.00
28.485 633.00
28.5502 583.00
28.6154 609.00
28.6806 587.00
28.7458 585.00
28.811 613.00
28.8762 564.00
28.9414 550.00
29.0066 565.00
29.0718 572.00
29.137 528.00
29.2022 502.00
29.2674 584.00
29.3326 554.00
29.3978 572.00
29.463 534.00
29.5282 578.00
29.5934 590.00
29.6586 613.00
29.7238 556.00
29.789 544.00
29.8542 555.00
29.9194 568.00
29.9846 566.00
30.0498 518.00
30.115 519.00
30.1802 553.00
30.2454 522.00
30.3106 571.00
30.3758 550.00
30.441 550.00
30.5062 533.00
30.5714 559.00
30.6366 552.00
30.7018 533.00
30.767 521.00
30.8322 526.00
30.8974 509.00
30.9626 513.00
31.0278 537.00
31.093 519.00
31.1582 513.00
31.2234 482.00
31.2886 525.00
31.3538 545.00
31.419 537.00
31.4842 519.00
31.5494 509.00
31.6146 547.00
31.6798 551.00
31.745 507.00
31.8102 486.00
31.8754 533.00
31.9406 483.00
32.0058 506.00
32.071 507.00
32.1362 514.00
32.2014 530.00
32.2666 495.00
32.3318 500.00
32.397 477.00
32.4622 477.00
32.5274 490.00
32.5926 474.00
32.6578 493.00
32.723 471.00
32.7882 466.00
32.8534 493.00
32.9186 471.00
32.9838 527.00
33.0489 472.00
33.1141 488.00
33.1793 491.00
33.2445 467.00
33.3097 466.00
33.3749 452.00
33.4401 474.00
33.5053 466.00
33.5705 445.00
33.6357 520.00
33.7009 484.00
33.7661 473.00
33.8313 459.00
33.8965 476.00
33.9617 444.00
34.0269 460.00
34.0921 471.00
34.1573 473.00
34.2225 470.00
34.2877 450.00
34.3529 460.00
34.4181 435.00
34.4833 418.00
34.5485 454.00
34.6137 447.00
34.6789 394.00
34.7441 437.00
34.8093 420.00
34.8745 416.00
34.9397 420.00
35.0049 444.00
35.0701 397.00
35.1353 427.00
35.2005 432.00
35.2657 408.00
35.3309 447.00
35.3961 384.00
35.4613 371.00
35.5265 408.00
35.5917 412.00
35.6569 381.00
35.7221 420.00
35.7873 384.00
35.8525 406.00
35.9177 443.00
35.9829 383.00
36.0481 419.00
36.1133 409.00
36.1785 429.00
36.2437 394.00
36.3089 391.00
36.3741 400.00
36.4393 404.00
36.5045 395.00
36.5697 378.00
36.6349 358.00
36.7001 401.00
36.7653 418.00
36.8305 384.00
36.8957 423.00
36.9609 402.00
37.0261 411.00
37.0913 386.00
37.1565 412.00
37.2217 424.00
37.2869 388.00
37.3521 383.00
37.4173 378.00
37.4825 378.00
37.5477 386.00
37.6129 383.00
37.6781 384.00
37.7433 373.00
37.8085 407.00
37.8736 361.00
37.9388 377.00
38.004 388.00
38.0692 364.00
38.1344 371.00
38.1996 392.00
38.2648 377.00
38.33 409.00
38.3952 373.00
38.4604 383.00
38.5256 358.00
38.5908 384.00
38.656 373.00
38.7212 359.00
38.7864 356.00
38.8516 348.00
38.9168 331.00
38.982 403.00
39.0472 352.00
39.1124 344.00
39.1776 341.00
39.2428 388.00
39.308 350.00
39.3732 334.00
39.4384 354.00
39.5036 388.00
39.5688 362.00
39.634 343.00
39.6992 346.00
39.7644 325.00
39.8296 362.00
39.8948 291.00
39.96 350.00
40.0252 347.00
40.0904 387.00
40.1556 344.00
40.2208 334.00
40.286 385.00
40.3512 327.00
40.4164 325.00
40.4816 344.00
40.5468 373.00
40.612 350.00
40.6772 324.00
40.7424 320.00
40.8076 360.00
40.8728 334.00
40.938 316.00
41.0032 331.00
41.0684 352.00
41.1336 311.00
41.1988 361.00
41.264 293.00
41.3292 329.00
41.3944 361.00
41.4596 330.00
41.5248 325.00
41.59 326.00
41.6552 343.00
41.7204 312.00
41.7856 307.00
41.8508 360.00
41.916 351.00
41.9812 333.00
42.0464 331.00
42.1116 334.00
42.1768 299.00
42.242 319.00
42.3072 298.00
42.3724 286.00
42.4376 304.00
42.5028 306.00
42.568 304.00
42.6332 304.00
42.6983 321.00
42.7635 317.00
42.8287 348.00
42.8939 306.00
42.9591 333.00
43.0243 361.00
43.0895 357.00
43.1547 378.00
43.2199 381.00
43.2851 339.00
43.3503 358.00
43.4155 328.00
43.4807 298.00
43.5459 302.00
43.6111 306.00
43.6763 305.00
43.7415 289.00
43.8067 286.00
43.8719 289.00
43.9371 298.00
44.0023 307.00
44.0675 293.00
44.1327 293.00
44.1979 309.00
44.2631 285.00
44.3283 304.00
44.3935 293.00
44.4587 276.00
44.5239 298.00
44.5891 265.00
44.6543 331.00
44.7195 292.00
44.7847 284.00
44.8499 311.00
44.9151 290.00
44.9803 298.00
45.0455 304.00
45.1107 274.00
45.1759 304.00
45.2411 291.00
45.3063 288.00
45.3715 306.00
45.4367 256.00
45.5019 295.00
45.5671 290.00
45.6323 266.00
45.6975 309.00
45.7627 316.00
45.8279 320.00
45.8931 286.00
45.9583 250.00
46.0235 264.00
46.0887 288.00
46.1539 295.00
46.2191 315.00
46.2843 297.00
46.3495 313.00
46.4147 273.00
46.4799 299.00
46.5451 250.00
46.6103 242.00
46.6755 269.00
46.7407 291.00
46.8059 278.00
46.8711 305.00
46.9363 335.00
47.0015 310.00
47.0667 249.00
47.1319 273.00
47.1971 288.00
47.2623 292.00
47.3275 268.00
47.3927 290.00
47.4579 267.00
47.523 286.00
47.5882 290.00
47.6534 243.00
47.7186 276.00
47.7838 259.00
47.849 289.00
47.9142 284.00
47.9794 290.00
48.0446 286.00
48.1098 264.00
48.175 304.00
48.2402 273.00
48.3054 273.00
48.3706 291.00
48.4358 272.00
48.501 306.00
48.5662 280.00
48.6314 257.00
48.6966 269.00
48.7618 280.00
48.827 275.00
48.8922 271.00
48.9574 259.00
49.0226 261.00
49.0878 280.00
49.153 269.00
49.2182 267.00
49.2834 263.00
49.3486 272.00
49.4138 256.00
49.479 274.00
49.5442 288.00
49.6094 238.00
49.6746 257.00
49.7398 238.00
49.805 267.00
49.8702 258.00
49.9354 299.00
50.0006 241.00
50.0658 238.00
50.131 285.00
50.1962 257.00
50.2614 266.00
50.3266 263.00
50.3918 248.00
50.457 288.00
50.5222 262.00
50.5874 236.00
50.6526 229.00
50.7178 288.00
50.783 291.00
50.8482 267.00
50.9134 243.00
50.9786 270.00
51.0438 269.00
51.109 236.00
51.1742 225.00
51.2394 270.00
51.3046 249.00
51.3698 284.00
51.435 231.00
51.5002 279.00
51.5654 297.00
51.6306 260.00
51.6958 262.00
51.761 275.00
51.8262 266.00
51.8914 278.00
51.9566 283.00
52.0218 272.00
52.087 268.00
52.1522 261.00
52.2174 247.00
52.2826 243.00
52.3477 273.00
52.4129 234.00
52.4781 259.00
52.5433 246.00
52.6085 259.00
52.6737 232.00
52.7389 245.00
52.8041 204.00
52.8693 278.00
52.9345 283.00
52.9997 243.00
53.0649 270.00
53.1301 226.00
53.1953 249.00
53.2605 275.00
53.3257 243.00
53.3909 250.00
53.4561 214.00
53.5213 240.00
53.5865 262.00
53.6517 238.00
53.7169 241.00
53.7821 220.00
53.8473 260.00
53.9125 277.00
53.9777 271.00
54.0429 224.00
54.1081 225.00
54.1733 258.00
54.2385 211.00
54.3037 241.00
54.3689 247.00
54.4341 243.00
54.4993 232.00
54.5645 271.00
54.6297 212.00
54.6949 258.00
54.7601 200.00
54.8253 248.00
54.8905 211.00
54.9557 210.00
55.0209 244.00
55.0861 219.00
55.1513 265.00
55.2165 239.00
55.2817 224.00
55.3469 208.00
55.4121 230.00
55.4773 220.00
55.5425 266.00
55.6077 200.00
55.6729 222.00
55.7381 229.00
55.8033 210.00
55.8685 224.00
55.9337 193.00
55.9989 204.00
56.0641 215.00
56.1293 265.00
56.1945 211.00
56.2597 217.00
56.3249 244.00
56.3901 217.00
56.4553 209.00
56.5205 211.00
56.5857 229.00
56.6509 206.00
56.7161 219.00
56.7813 224.00
56.8465 216.00
56.9117 246.00
56.9769 217.00
57.042 220.00
57.1073 245.00
57.1724 209.00
57.2376 202.00
57.3028 238.00
57.368 245.00
57.4332 206.00
57.4984 216.00
57.5636 233.00
57.6288 196.00
57.694 204.00
57.7592 238.00
57.8244 222.00
57.8896 229.00
57.9548 223.00
58.02 223.00
58.0852 210.00
58.1504 214.00
58.2156 196.00
58.2808 206.00
58.346 191.00
58.4112 230.00
58.4764 210.00
58.5416 205.00
58.6068 201.00
58.672 211.00
58.7372 207.00
58.8024 190.00
58.8676 214.00
58.9328 221.00
58.998 190.00
59.0632 223.00
59.1284 198.00
59.1936 229.00
59.2588 162.00
59.324 210.00
59.3892 202.00
59.4544 190.00
59.5196 206.00
59.5848 204.00
59.65 220.00
59.7152 223.00
59.7804 218.00
59.8456 197.00
59.9108 232.00
59.976 210.00
60.0412 205.00
60.1064 214.00
60.1716 211.00
60.2368 216.00
60.302 181.00
60.3672 207.00
60.4324 232.00
60.4976 228.00
60.5628 221.00
60.628 256.00
60.6932 189.00
60.7584 193.00
60.8236 188.00
60.8888 236.00
60.954 158.00
61.0192 197.00
61.0844 208.00
61.1496 190.00
61.2148 203.00
61.28 208.00
61.3452 198.00
61.4104 225.00
61.4756 180.00
61.5408 208.00
61.606 204.00
61.6712 204.00
61.7364 208.00
61.8016 190.00
61.8667 191.00
61.932 210.00
61.9971 205.00
62.0623 179.00
62.1275 205.00
62.1927 194.00
62.2579 212.00
62.3231 181.00
62.3883 194.00
62.4535 198.00
62.5187 195.00
62.5839 195.00
62.6491 187.00
62.7143 204.00
62.7795 209.00
62.8447 210.00
62.9099 195.00
62.9751 184.00
63.0403 182.00
63.1055 218.00
63.1707 186.00
63.2359 191.00
63.3011 183.00
63.3663 152.00
63.4315 199.00
63.4967 191.00
63.5619 223.00
63.6271 201.00
63.6923 179.00
63.7575 173.00
63.8227 202.00
63.8879 204.00
63.9531 179.00
64.0183 175.00
64.0835 194.00
64.1487 191.00
64.2139 220.00
64.2791 207.00
64.3443 192.00
64.4095 204.00
64.4747 196.00
64.5399 182.00
64.6051 223.00
64.6703 199.00
64.7355 191.00
64.8007 188.00
64.8659 202.00
64.9311 201.00
64.9963 182.00
65.0615 171.00
65.1267 205.00
65.1919 186.00
65.2571 195.00
65.3223 194.00
65.3875 179.00
65.4527 188.00
65.5179 165.00
65.5831 184.00
65.6483 180.00
65.7135 187.00
65.7787 204.00
65.8439 191.00
65.9091 201.00
65.9743 219.00
66.0395 193.00
66.1047 195.00
66.1699 162.00
66.2351 173.00
66.3003 211.00
66.3655 193.00
66.4307 204.00
66.4959 171.00
66.561 206.00
66.6263 183.00
66.6915 206.00
66.7566 181.00
66.8218 186.00
66.887 162.00
66.9522 178.00
67.0174 181.00
67.0826 186.00
67.1478 176.00
67.213 197.00
67.2782 179.00
67.3434 211.00
67.4086 163.00
67.4738 177.00
67.539 207.00
67.6042 204.00
67.6694 182.00
67.7346 204.00
67.7998 188.00
67.865 210.00
67.9302 182.00
67.9954 188.00
68.0606 181.00
68.1258 185.00
68.191 199.00
68.2562 170.00
68.3214 175.00
68.3866 211.00
68.4518 172.00
68.517 172.00
68.5822 195.00
68.6474 189.00
68.7126 192.00
68.7778 162.00
68.843 187.00
68.9082 210.00
68.9734 208.00
69.0386 198.00
69.1038 161.00
69.169 205.00
69.2342 202.00
69.2994 194.00
69.3646 204.00
69.4298 176.00
69.495 202.00
69.5602 193.00
69.6254 195.00
69.6906 209.00
69.7558 190.00
69.821 199.00
69.8862 183.00
69.9514 165.00
70.0166 168.00
70.0818 162.00
70.147 200.00
70.2122 167.00
70.2774 195.00
70.3426 203.00
70.4078 194.00
70.473 198.00
70.5382 178.00
70.6034 169.00
70.6686 182.00
70.7338 184.00
70.799 181.00
70.8642 201.00
70.9294 167.00
70.9946 191.00
71.0598 201.00
71.125 191.00
71.1902 201.00
71.2554 191.00
71.3205 210.00
71.3858 182.00
71.451 200.00
71.5162 206.00
71.5813 189.00
71.6465 170.00
71.7117 227.00
71.7769 226.00
71.8421 204.00
71.9073 171.00
71.9725 182.00
72.0377 196.00
72.1029 192.00
72.1681 206.00
72.2333 203.00
72.2985 199.00
72.3637 192.00
72.4289 186.00
72.4941 155.00
72.5593 180.00
72.6245 178.00
72.6897 191.00
72.7549 177.00
72.8201 193.00
72.8853 181.00
72.9505 198.00
73.0157 206.00
73.0809 206.00
73.1461 203.00
73.2113 173.00
73.2765 197.00
73.3417 205.00
73.4069 191.00
73.4721 188.00
73.5373 209.00
73.6025 214.00
73.6677 176.00
73.7329 172.00
73.7981 203.00
73.8633 197.00
73.9285 217.00
73.9937 188.00
74.0589 194.00
74.1241 196.00
74.1893 191.00
74.2545 201.00
74.3197 180.00
74.3849 168.00
74.4501 214.00
74.5153 202.00
74.5805 199.00
74.6457 216.00
74.7109 210.00
74.7761 166.00
74.8413 175.00
74.9065 195.00
74.9717 212.00
75.0369 208.00
75.1021 198.00
75.1673 194.00
75.2325 191.00
75.2977 222.00
75.3629 205.00
75.4281 180.00
75.4933 188.00
75.5585 226.00
75.6237 189.00
75.6889 200.00
75.7541 210.00
75.8193 197.00
75.8845 214.00
75.9497 189.00
76.0149 205.00
76.0801 184.00
76.1452 193.00
76.2104 190.00
76.2756 195.00
76.3409 200.00
76.406 209.00
76.4712 207.00
76.5364 229.00
76.6016 213.00
76.6668 190.00
76.732 204.00
76.7972 219.00
76.8624 216.00
76.9276 206.00
76.9928 201.00
77.058 203.00
77.1232 213.00
77.1884 218.00
77.2536 170.00
77.3188 210.00
77.384 221.00
77.4492 207.00
77.5144 208.00
77.5796 222.00
77.6448 195.00
77.71 195.00
77.7752 202.00
77.8404 187.00
77.9056 227.00
77.9708 216.00
78.036 232.00
78.1012 202.00
78.1664 218.00
78.2316 205.00
78.2968 232.00
78.362 190.00
78.4272 226.00
78.4924 193.00
78.5576 208.00
78.6228 218.00
78.688 209.00
78.7532 194.00
78.8184 213.00
78.8836 229.00
78.9488 192.00
79.014 209.00
79.0792 214.00
79.1444 213.00
79.2096 246.00
79.2748 231.00
79.34 238.00
79.4052 241.00
79.4704 240.00
79.5356 210.00
79.6008 216.00
79.666 241.00
79.7312 196.00
79.7964 229.00
79.8616 266.00
79.9268 229.00
79.992 221.00
80.0572 222.00
80.1224 237.00
80.1876 236.00
80.2528 247.00
80.318 219.00
80.3832 205.00
80.4484 216.00
80.5136 249.00
80.5788 227.00
80.644 210.00
80.7092 202.00
80.7744 224.00
80.8396 226.00
80.9048 205.00
80.9699 197.00
81.0351 232.00
81.1003 220.00
81.1655 223.00
81.2307 211.00
81.2959 229.00
81.3611 238.00
81.4263 216.00
81.4915 209.00
81.5567 205.00
81.6219 231.00
81.6871 240.00
81.7523 232.00
81.8175 220.00
81.8827 227.00
81.9479 221.00
82.0131 217.00
82.0783 217.00
82.1435 219.00
82.2087 242.00
82.2739 202.00
82.3391 228.00
82.4043 189.00
82.4695 214.00
82.5347 239.00
82.5999 203.00
82.6651 216.00
82.7303 211.00
82.7955 220.00
82.8607 222.00
82.9259 213.00
82.9911 246.00
83.0563 238.00
83.1215 196.00
83.1867 214.00
83.2519 204.00
83.3171 201.00
83.3823 239.00
83.4475 214.00
83.5127 224.00
83.5779 226.00
83.6431 246.00
83.7083 185.00
83.7735 202.00
83.8387 226.00
83.9039 214.00
83.9691 210.00
84.0343 219.00
84.0995 210.00
84.1647 200.00
84.2299 204.00
84.2951 210.00
84.3603 214.00
84.4255 218.00
84.4907 210.00
84.5559 220.00
84.6211 220.00
84.6863 215.00
84.7515 233.00
84.8167 232.00
84.8819 229.00
84.9471 191.00
85.0123 204.00
85.0775 188.00
85.1427 198.00
85.2079 184.00
85.2731 177.00
85.3383 217.00
85.4035 217.00
85.4687 193.00
85.5339 229.00
85.5991 202.00
85.6643 216.00
85.7295 217.00
85.7946 190.00
85.8598 200.00
85.925 195.00
85.9903 222.00
86.0554 166.00
86.1206 210.00
86.1858 202.00
86.251 232.00
86.3162 194.00
86.3814 198.00
86.4466 201.00
86.5118 230.00
86.577 194.00
86.6422 202.00
86.7074 214.00
86.7726 206.00
86.8378 180.00
86.903 198.00
86.9682 182.00
87.0334 183.00
87.0986 202.00
87.1638 181.00
87.229 177.00
87.2942 205.00
87.3594 160.00
87.4246 230.00
87.4898 184.00
87.555 179.00
87.6202 203.00
87.6854 208.00
87.7506 189.00
87.8158 217.00
87.881 216.00
87.9462 186.00
88.0114 186.00
88.0766 207.00
88.1418 185.00
88.207 171.00
88.2722 198.00
88.3374 212.00
88.4026 195.00
88.4678 172.00
88.533 178.00
88.5982 213.00
88.6634 190.00
88.7286 222.00
88.7938 201.00
88.859 196.00
88.9242 180.00
88.9894 196.00
89.0546 171.00
89.1198 180.00
89.185 174.00
89.2502 202.00
89.3154 185.00
89.3806 177.00
89.4458 192.00
89.511 200.00
89.5762 163.00
89.6414 191.00
89.7066 189.00
89.7718 198.00
89.837 207.00
89.9022 170.00
89.9674 215.00
90.0326 184.00
90.0978 157.00
90.163 191.00
90.2282 182.00
90.2934 177.00
90.3586 197.00
90.4238 182.00
90.489 181.00
90.5542 188.00
90.6193 187.00
90.6845 160.00
90.7497 178.00
90.8149 177.00
90.8801 191.00
90.9453 171.00
91.0105 172.00
91.0757 195.00
91.1409 187.00
91.2061 176.00
91.2713 186.00
91.3365 201.00
91.4017 170.00
91.4669 191.00
91.5321 189.00
91.5973 182.00
91.6625 202.00
91.7277 178.00
91.7929 167.00
91.8581 186.00
91.9233 203.00
91.9885 160.00
92.0537 169.00
92.1189 185.00
92.1841 181.00
92.2493 208.00
92.3145 193.00
92.3797 185.00
92.4449 185.00
92.5101 196.00
92.5753 168.00
92.6405 193.00
92.7057 148.00
92.7709 187.00
92.8361 164.00
92.9013 176.00
92.9665 182.00
93.0317 203.00
93.0969 182.00
93.1621 180.00
93.2273 168.00
93.2925 148.00
93.3577 166.00
93.4229 187.00
93.4881 185.00
93.5533 177.00
93.6185 195.00
93.6837 176.00
93.7489 171.00
93.8141 176.00
93.8793 177.00
93.9445 193.00
94.0097 147.00
94.0749 158.00
94.1401 190.00
94.2053 179.00
94.2705 169.00
94.3357 178.00
94.4009 174.00
94.4661 173.00
94.5313 189.00
94.5965 193.00
94.6617 182.00
94.7269 170.00
94.7921 188.00
94.8573 164.00
94.9225 192.00
94.9877 181.00
95.0529 177.00
95.1181 178.00
95.1833 177.00
95.2485 213.00
95.3137 183.00
95.3789 183.00
95.444 189.00
95.5092 188.00
95.5744 193.00
95.6396 183.00
95.7048 188.00
95.77 163.00
95.8352 169.00
95.9004 175.00
95.9656 153.00
96.0308 193.00
96.096 196.00
96.1612 189.00
96.2264 175.00
96.2916 192.00
96.3568 186.00
96.422 183.00
96.4872 192.00
96.5524 175.00
96.6176 173.00
96.6828 192.00
96.748 187.00
96.8132 180.00
96.8784 189.00
96.9436 203.00
97.0088 186.00
97.074 183.00
97.1392 185.00
97.2044 181.00
97.2696 182.00
97.3348 155.00
97.4 180.00
97.4652 163.00
97.5304 203.00
97.5956 183.00
97.6608 154.00
97.726 178.00
97.7912 190.00
97.8564 176.00
97.9216 182.00
97.9868 186.00
98.052 174.00
98.1172 168.00
98.1824 161.00
98.2476 166.00
98.3128 187.00
98.378 194.00
98.4432 167.00
98.5084 164.00
98.5736 151.00
98.6388 186.00
98.704 182.00
98.7692 187.00
98.8344 169.00
98.8996 184.00
98.9648 183.00
99.03 190.00
99.0952 173.00
99.1604 204.00
99.2256 188.00
99.2908 170.00
99.356 152.00
99.4212 184.00
99.4864 194.00
99.5516 181.00
99.6168 181.00
99.682 179.00
99.7472 179.00
99.8124 154.00
99.8776 185.00
99.9428 163.00
100.008 203.00
100.073 169.00
100.095 188.00