File: data/xrd_creation/results/PG_2735-1.xy
9.903433 3115.00
9.968632 3053.00
10.0338 3117.00
10.099 3058.00
10.1642 3132.00
10.2294 3031.00
10.2946 2984.00
10.3598 2989.00
10.425 2967.00
10.4902 2976.00
10.5554 2858.00
10.6206 2861.00
10.6858 2953.00
10.751 2937.00
10.8162 2876.00
10.8814 2873.00
10.9466 2934.00
11.0118 2853.00
11.077 2797.00
11.1422 2758.00
11.2074 2756.00
11.2726 2816.00
11.3378 2782.00
11.403 2847.00
11.4682 2695.00
11.5334 2775.00
11.5986 2640.00
11.6638 2776.00
11.729 2791.00
11.7942 2669.00
11.8594 2769.00
11.9246 2732.00
11.9898 2662.00
12.055 2672.00
12.1202 2785.00
12.1854 2650.00
12.2506 2668.00
12.3158 2623.00
12.381 2634.00
12.4462 2617.00
12.5114 2626.00
12.5766 2627.00
12.6418 2604.00
12.707 2599.00
12.7722 2497.00
12.8374 2660.00
12.9026 2597.00
12.9678 2485.00
13.033 2475.00
13.0982 2579.00
13.1634 2406.00
13.2286 2381.00
13.2938 2514.00
13.359 2461.00
13.4242 2494.00
13.4894 2483.00
13.5546 2506.00
13.6198 2421.00
13.685 2424.00
13.7502 2446.00
13.8154 2475.00
13.8805 2455.00
13.9457 2518.00
14.0109 2416.00
14.0761 2486.00
14.1413 2513.00
14.2065 2431.00
14.2717 2431.00
14.3369 2459.00
14.4021 2500.00
14.4673 2442.00
14.5325 2427.00
14.5977 2491.00
14.6629 2335.00
14.7281 2427.00
14.7933 2470.00
14.8585 2486.00
14.9237 2416.00
14.9889 2517.00
15.0541 2415.00
15.1193 2517.00
15.1845 2429.00
15.2497 2485.00
15.3149 2612.00
15.3801 2691.00
15.4453 2786.00
15.5105 2688.00
15.5757 2784.00
15.6409 3074.00
15.7061 3253.00
15.7713 3550.00
15.8365 3819.00
15.9017 4230.00
15.9669 4535.00
16.0321 4252.00
16.0973 4152.00
16.1625 3640.00
16.2277 3228.00
16.2929 2864.00
16.3581 2622.00
16.4233 2604.00
16.4885 2423.00
16.5537 2524.00
16.6189 2522.00
16.6841 2415.00
16.7493 2404.00
16.8145 2351.00
16.8797 2388.00
16.9449 2295.00
17.0101 2389.00
17.0753 2310.00
17.1405 2298.00
17.2057 2380.00
17.2709 2231.00
17.3361 2402.00
17.4013 2434.00
17.4665 2303.00
17.5317 2356.00
17.5969 2350.00
17.6621 2330.00
17.7273 2211.00
17.7925 2299.00
17.8577 2300.00
17.9229 2340.00
17.9881 2316.00
18.0533 2256.00
18.1185 2259.00
18.1837 2283.00
18.2489 2283.00
18.3141 2293.00
18.3793 2281.00
18.4445 2216.00
18.5097 2294.00
18.5749 2272.00
18.6401 2293.00
18.7052 2313.00
18.7704 2281.00
18.8356 2195.00
18.9008 2261.00
18.966 2195.00
19.0312 2179.00
19.0964 2191.00
19.1616 2258.00
19.2268 2218.00
19.292 2329.00
19.3572 2268.00
19.4224 2237.00
19.4876 2280.00
19.5528 2211.00
19.618 2269.00
19.6832 2181.00
19.7484 2225.00
19.8136 2243.00
19.8788 2259.00
19.944 2164.00
20.0092 2213.00
20.0744 2168.00
20.1396 2250.00
20.2048 2273.00
20.27 2260.00
20.3352 2315.00
20.4004 2188.00
20.4656 2207.00
20.5308 2300.00
20.596 2237.00
20.6612 2279.00
20.7264 2204.00
20.7916 2218.00
20.8568 2248.00
20.922 2142.00
20.9872 2270.00
21.0524 2103.00
21.1176 2228.00
21.1828 2219.00
21.248 2205.00
21.3132 2161.00
21.3784 2274.00
21.4436 2183.00
21.5088 2184.00
21.574 2235.00
21.6392 2208.00
21.7044 2168.00
21.7696 2293.00
21.8348 2201.00
21.9 2143.00
21.9652 2145.00
22.0304 2158.00
22.0956 2161.00
22.1608 2190.00
22.226 2130.00
22.2912 2244.00
22.3564 2193.00
22.4216 2121.00
22.4868 2163.00
22.552 2187.00
22.6172 2208.00
22.6824 2153.00
22.7476 2209.00
22.8128 2201.00
22.878 2066.00
22.9432 2186.00
23.0084 2163.00
23.0736 2133.00
23.1388 2066.00
23.204 2168.00
23.2692 2164.00
23.3344 2187.00
23.3996 2081.00
23.4647 2152.00
23.5299 2193.00
23.5951 2092.00
23.6603 2212.00
23.7255 2153.00
23.7907 2209.00
23.8559 2185.00
23.9211 2127.00
23.9863 2213.00
24.0515 2132.00
24.1167 2091.00
24.1819 2122.00
24.2471 2035.00
24.3123 2144.00
24.3775 2098.00
24.4427 2134.00
24.5079 2157.00
24.5731 2117.00
24.6383 2155.00
24.7035 2104.00
24.7687 2120.00
24.8339 2190.00
24.8991 2133.00
24.9643 2178.00
25.0295 2124.00
25.0947 2150.00
25.1599 2118.00
25.2251 2125.00
25.2903 2133.00
25.3555 2192.00
25.4207 2085.00
25.4859 2160.00
25.5511 2121.00
25.6163 2139.00
25.6815 2101.00
25.7467 2077.00
25.8119 2057.00
25.8771 2175.00
25.9423 2146.00
26.0075 2018.00
26.0727 2164.00
26.1379 2110.00
26.2031 2081.00
26.2683 2085.00
26.3335 2033.00
26.3987 2040.00
26.4639 2116.00
26.5291 1984.00
26.5943 2087.00
26.6595 2101.00
26.7247 2036.00
26.7899 2106.00
26.8551 2053.00
26.9203 2031.00
26.9855 2011.00
27.0507 1974.00
27.1159 2049.00
27.1811 1998.00
27.2463 2112.00
27.3115 1998.00
27.3767 2042.00
27.4419 2079.00
27.5071 2016.00
27.5723 2036.00
27.6375 2010.00
27.7027 1997.00
27.7679 1989.00
27.8331 1975.00
27.8983 2003.00
27.9635 2039.00
28.0287 2027.00
28.0939 1981.00
28.1591 2020.00
28.2243 2077.00
28.2894 1962.00
28.3546 2002.00
28.4198 1904.00
28.485 1963.00
28.5502 2007.00
28.6154 1946.00
28.6806 1996.00
28.7458 2005.00
28.811 2002.00
28.8762 2026.00
28.9414 2027.00
29.0066 2043.00
29.0718 2008.00
29.137 1889.00
29.2022 1983.00
29.2674 1993.00
29.3326 1953.00
29.3978 1969.00
29.463 2046.00
29.5282 1920.00
29.5934 2023.00
29.6586 1991.00
29.7238 1991.00
29.789 1914.00
29.8542 1998.00
29.9194 2003.00
29.9846 1956.00
30.0498 2080.00
30.115 2070.00
30.1802 2012.00
30.2454 2065.00
30.3106 2000.00
30.3758 1986.00
30.441 2074.00
30.5062 2008.00
30.5714 2010.00
30.6366 1938.00
30.7018 1989.00
30.767 2035.00
30.8322 1988.00
30.8974 1971.00
30.9626 2108.00
31.0278 2056.00
31.093 2013.00
31.1582 2030.00
31.2234 2004.00
31.2886 2146.00
31.3538 2150.00
31.419 2134.00
31.4842 2187.00
31.5494 2150.00
31.6146 2123.00
31.6798 2129.00
31.745 2137.00
31.8102 2163.00
31.8754 2104.00
31.9406 2198.00
32.0058 2178.00
32.071 2274.00
32.1362 2362.00
32.2014 2341.00
32.2666 2429.00
32.3318 2380.00
32.397 2351.00
32.4622 2265.00
32.5274 2154.00
32.5926 2108.00
32.6578 2056.00
32.723 2052.00
32.7882 2003.00
32.8534 2002.00
32.9186 2091.00
32.9838 1966.00
33.0489 2041.00
33.1141 1970.00
33.1793 1973.00
33.2445 1994.00
33.3097 1998.00
33.3749 2042.00
33.4401 2080.00
33.5053 1987.00
33.5705 1980.00
33.6357 2029.00
33.7009 1959.00
33.7661 2021.00
33.8313 1993.00
33.8965 1973.00
33.9617 2004.00
34.0269 1952.00
34.0921 1894.00
34.1573 1909.00
34.2225 1985.00
34.2877 1922.00
34.3529 1923.00
34.4181 1874.00
34.4833 1909.00
34.5485 1869.00
34.6137 1949.00
34.6789 1954.00
34.7441 1932.00
34.8093 1937.00
34.8745 1936.00
34.9397 1872.00
35.0049 1913.00
35.0701 1970.00
35.1353 1907.00
35.2005 1913.00
35.2657 1940.00
35.3309 1976.00
35.3961 1944.00
35.4613 1880.00
35.5265 1975.00
35.5917 1949.00
35.6569 1982.00
35.7221 1954.00
35.7873 1901.00
35.8525 1923.00
35.9177 1886.00
35.9829 1976.00
36.0481 2014.00
36.1133 2004.00
36.1785 2006.00
36.2437 1976.00
36.3089 2101.00
36.3741 2004.00
36.4393 2127.00
36.5045 2126.00
36.5697 2122.00
36.6349 2153.00
36.7001 2075.00
36.7653 2165.00
36.8305 2176.00
36.8957 2229.00
36.9609 2214.00
37.0261 2260.00
37.0913 2149.00
37.1565 2232.00
37.2217 2174.00
37.2869 2201.00
37.3521 2251.00
37.4173 2100.00
37.4825 2233.00
37.5477 2130.00
37.6129 2209.00
37.6781 2224.00
37.7433 2201.00
37.8085 2164.00
37.8736 2201.00
37.9388 2263.00
38.004 2210.00
38.0692 2230.00
38.1344 2189.00
38.1996 2144.00
38.2648 2155.00
38.33 2146.00
38.3952 2081.00
38.4604 2120.00
38.5256 2060.00
38.5908 2038.00
38.656 2000.00
38.7212 2003.00
38.7864 2045.00
38.8516 1968.00
38.9168 2029.00
38.982 1909.00
39.0472 1926.00
39.1124 2034.00
39.1776 2016.00
39.2428 2000.00
39.308 2014.00
39.3732 1925.00
39.4384 1971.00
39.5036 1983.00
39.5688 1928.00
39.634 1972.00
39.6992 1953.00
39.7644 1913.00
39.8296 1961.00
39.8948 1959.00
39.96 1999.00
40.0252 1982.00
40.0904 1899.00
40.1556 1980.00
40.2208 1960.00
40.286 1933.00
40.3512 1913.00
40.4164 1909.00
40.4816 1888.00
40.5468 2010.00
40.612 1910.00
40.6772 1942.00
40.7424 1869.00
40.8076 1912.00
40.8728 1896.00
40.938 1897.00
41.0032 1958.00
41.0684 1964.00
41.1336 1917.00
41.1988 1963.00
41.264 2005.00
41.3292 1873.00
41.3944 1921.00
41.4596 2009.00
41.5248 1888.00
41.59 1963.00
41.6552 1908.00
41.7204 1930.00
41.7856 1952.00
41.8508 1938.00
41.916 1949.00
41.9812 2010.00
42.0464 2015.00
42.1116 1951.00
42.1768 1976.00
42.242 1918.00
42.3072 1951.00
42.3724 1901.00
42.4376 1891.00
42.5028 1963.00
42.568 1866.00
42.6332 1892.00
42.6983 2006.00
42.7635 1997.00
42.8287 1901.00
42.8939 1988.00
42.9591 1927.00
43.0243 1953.00
43.0895 1948.00
43.1547 1963.00
43.2199 1908.00
43.2851 1976.00
43.3503 1939.00
43.4155 1977.00
43.4807 1982.00
43.5459 2023.00
43.6111 1930.00
43.6763 1967.00
43.7415 1976.00
43.8067 2100.00
43.8719 2007.00
43.9371 2062.00
44.0023 2043.00
44.0675 1994.00
44.1327 2064.00
44.1979 2071.00
44.2631 1963.00
44.3283 2055.00
44.3935 2024.00
44.4587 1973.00
44.5239 2016.00
44.5891 2064.00
44.6543 2120.00
44.7195 2034.00
44.7847 2091.00
44.8499 2110.00
44.9151 2098.00
44.9803 2052.00
45.0455 2093.00
45.1107 2089.00
45.1759 2031.00
45.2411 2002.00
45.3063 2049.00
45.3715 1974.00
45.4367 2121.00
45.5019 2013.00
45.5671 1900.00
45.6323 2042.00
45.6975 2014.00
45.7627 1969.00
45.8279 1977.00
45.8931 1937.00
45.9583 1960.00
46.0235 1991.00
46.0887 2005.00
46.1539 1970.00
46.2191 1939.00
46.2843 1917.00
46.3495 1942.00
46.4147 1955.00
46.4799 1931.00
46.5451 1928.00
46.6103 1940.00
46.6755 1899.00
46.7407 1889.00
46.8059 1825.00
46.8711 1942.00
46.9363 1986.00
47.0015 1946.00
47.0667 2006.00
47.1319 1904.00
47.1971 1956.00
47.2623 1893.00
47.3275 1947.00
47.3927 1911.00
47.4579 1936.00
47.523 1855.00
47.5882 1921.00
47.6534 1867.00
47.7186 1849.00
47.7838 1899.00
47.849 1850.00
47.9142 1923.00
47.9794 1919.00
48.0446 1851.00
48.1098 1879.00
48.175 1897.00
48.2402 1886.00
48.3054 1840.00
48.3706 1858.00
48.4358 1839.00
48.501 1865.00
48.5662 1877.00
48.6314 1835.00
48.6966 1904.00
48.7618 1892.00
48.827 1885.00
48.8922 1827.00
48.9574 1918.00
49.0226 1884.00
49.0878 1846.00
49.153 1853.00
49.2182 1864.00
49.2834 1836.00
49.3486 1766.00
49.4138 1849.00
49.479 1782.00
49.5442 1878.00
49.6094 1803.00
49.6746 1803.00
49.7398 1841.00
49.805 1814.00
49.8702 1845.00
49.9354 1880.00
50.0006 1826.00
50.0658 1892.00
50.131 1847.00
50.1962 1797.00
50.2614 1842.00
50.3266 1853.00
50.3918 1844.00
50.457 1858.00
50.5222 1879.00
50.5874 1898.00
50.6526 1788.00
50.7178 1860.00
50.783 1851.00
50.8482 1909.00
50.9134 1943.00
50.9786 1855.00
51.0438 1883.00
51.109 1832.00
51.1742 1841.00
51.2394 1837.00
51.3046 1871.00
51.3698 1936.00
51.435 1859.00
51.5002 1816.00
51.5654 1839.00
51.6306 1851.00
51.6958 1938.00
51.761 1910.00
51.8262 1839.00
51.8914 1868.00
51.9566 1855.00
52.0218 1849.00
52.087 1884.00
52.1522 1870.00
52.2174 1944.00
52.2826 1914.00
52.3477 1836.00
52.4129 1839.00
52.4781 1836.00
52.5433 1837.00
52.6085 1884.00
52.6737 1803.00
52.7389 1843.00
52.8041 1824.00
52.8693 1915.00
52.9345 1863.00
52.9997 1844.00
53.0649 1877.00
53.1301 1826.00
53.1953 1846.00
53.2605 1918.00
53.3257 1877.00
53.3909 1824.00
53.4561 1846.00
53.5213 1886.00
53.5865 1912.00
53.6517 1855.00
53.7169 1810.00
53.7821 1878.00
53.8473 1915.00
53.9125 1936.00
53.9777 1905.00
54.0429 1843.00
54.1081 1938.00
54.1733 1938.00
54.2385 1931.00
54.3037 1900.00
54.3689 1855.00
54.4341 1925.00
54.4993 1832.00
54.5645 1884.00
54.6297 1873.00
54.6949 1824.00
54.7601 1936.00
54.8253 1894.00
54.8905 1823.00
54.9557 1907.00
55.0209 1869.00
55.0861 1865.00
55.1513 1920.00
55.2165 1852.00
55.2817 1882.00
55.3469 1908.00
55.4121 1918.00
55.4773 1967.00
55.5425 1874.00
55.6077 1868.00
55.6729 1895.00
55.7381 1840.00
55.8033 1944.00
55.8685 1998.00
55.9337 1986.00
55.9989 1834.00
56.0641 1913.00
56.1293 1919.00
56.1945 1824.00
56.2597 1871.00
56.3249 1891.00
56.3901 1890.00
56.4553 1876.00
56.5205 1923.00
56.5857 1828.00
56.6509 1956.00
56.7161 1864.00
56.7813 1961.00
56.8465 1919.00
56.9117 1975.00
56.9769 1924.00
57.042 1855.00
57.1073 1872.00
57.1724 1866.00
57.2376 1922.00
57.3028 1900.00
57.368 1916.00
57.4332 1945.00
57.4984 1878.00
57.5636 1820.00
57.6288 1793.00
57.694 1793.00
57.7592 1871.00
57.8244 1855.00
57.8896 1847.00
57.9548 1818.00
58.02 1850.00
58.0852 1879.00
58.1504 1837.00
58.2156 1830.00
58.2808 1774.00
58.346 1895.00
58.4112 1857.00
58.4764 1934.00
58.5416 1754.00
58.6068 1744.00
58.672 1881.00
58.7372 1827.00
58.8024 1809.00
58.8676 1880.00
58.9328 1836.00
58.998 1912.00
59.0632 1858.00
59.1284 1794.00
59.1936 1795.00
59.2588 1785.00
59.324 1831.00
59.3892 1743.00
59.4544 1836.00
59.5196 1762.00
59.5848 1844.00
59.65 1788.00
59.7152 1822.00
59.7804 1891.00
59.8456 1805.00
59.9108 1821.00
59.976 1744.00
60.0412 1831.00
60.1064 1804.00
60.1716 1803.00
60.2368 1849.00
60.302 1826.00
60.3672 1830.00
60.4324 1863.00
60.4976 1857.00
60.5628 1784.00
60.628 1757.00
60.6932 1827.00
60.7584 1769.00
60.8236 1811.00
60.8888 1793.00
60.954 1814.00
61.0192 1749.00
61.0844 1789.00
61.1496 1780.00
61.2148 1780.00
61.28 1764.00
61.3452 1890.00
61.4104 1826.00
61.4756 1807.00
61.5408 1813.00
61.606 1853.00
61.6712 1870.00
61.7364 1802.00
61.8016 1830.00
61.8667 1846.00
61.932 1840.00
61.9971 1836.00
62.0623 1745.00
62.1275 1892.00
62.1927 1831.00
62.2579 1774.00
62.3231 1813.00
62.3883 1705.00
62.4535 1787.00
62.5187 1804.00
62.5839 1839.00
62.6491 1859.00
62.7143 1824.00
62.7795 1821.00
62.8447 1849.00
62.9099 1794.00
62.9751 1806.00
63.0403 1792.00
63.1055 1801.00
63.1707 1706.00
63.2359 1806.00
63.3011 1841.00
63.3663 1773.00
63.4315 1861.00
63.4967 1823.00
63.5619 1830.00
63.6271 1764.00
63.6923 1829.00
63.7575 1845.00
63.8227 1720.00
63.8879 1795.00
63.9531 1717.00
64.0183 1849.00
64.0835 1869.00
64.1487 1940.00
64.2139 1776.00
64.2791 1843.00
64.3443 1829.00
64.4095 1820.00
64.4747 1822.00
64.5399 1736.00
64.6051 1773.00
64.6703 1744.00
64.7355 1885.00
64.8007 1755.00
64.8659 1803.00
64.9311 1858.00
64.9963 1874.00
65.0615 1879.00
65.1267 2030.00
65.1919 1988.00
65.2571 1985.00
65.3223 2011.00
65.3875 1998.00
65.4527 2030.00
65.5179 2148.00
65.5831 2134.00
65.6483 2068.00
65.7135 2133.00
65.7787 2045.00
65.8439 2081.00
65.9091 2014.00
65.9743 1965.00
66.0395 2043.00
66.1047 1960.00
66.1699 1909.00
66.2351 1960.00
66.3003 1915.00
66.3655 1974.00
66.4307 1935.00
66.4959 1812.00
66.561 1912.00
66.6263 2003.00
66.6915 1996.00
66.7566 1879.00
66.8218 1886.00
66.887 1866.00
66.9522 1828.00
67.0174 1893.00
67.0826 1895.00
67.1478 1913.00
67.213 1965.00
67.2782 1861.00
67.3434 1815.00
67.4086 1865.00
67.4738 1959.00
67.539 1901.00
67.6042 1930.00
67.6694 1910.00
67.7346 1829.00
67.7998 1808.00
67.865 1812.00
67.9302 1891.00
67.9954 1877.00
68.0606 1891.00
68.1258 1924.00
68.191 1795.00
68.2562 1821.00
68.3214 1868.00
68.3866 1839.00
68.4518 1830.00
68.517 1845.00
68.5822 1758.00
68.6474 1822.00
68.7126 1828.00
68.7778 1816.00
68.843 1891.00
68.9082 1816.00
68.9734 1848.00
69.0386 1849.00
69.1038 1802.00
69.169 1818.00
69.2342 1892.00
69.2994 1774.00
69.3646 1840.00
69.4298 1849.00
69.495 1803.00
69.5602 1780.00
69.6254 1841.00
69.6906 1795.00
69.7558 1873.00
69.821 1862.00
69.8862 1770.00
69.9514 1776.00
70.0166 1804.00
70.0818 1803.00
70.147 1861.00
70.2122 1781.00
70.2774 1860.00
70.3426 1795.00
70.4078 1804.00
70.473 1853.00
70.5382 1772.00
70.6034 1861.00
70.6686 1776.00
70.7338 1781.00
70.799 1774.00
70.8642 1735.00
70.9294 1805.00
70.9946 1789.00
71.0598 1809.00
71.125 1795.00
71.1902 1804.00
71.2554 1821.00
71.3205 1797.00
71.3858 1804.00
71.451 1859.00
71.5162 1720.00
71.5813 1841.00
71.6465 1844.00
71.7117 1807.00
71.7769 1799.00
71.8421 1771.00
71.9073 1730.00
71.9725 1748.00
72.0377 1753.00
72.1029 1778.00
72.1681 1720.00
72.2333 1714.00
72.2985 1774.00
72.3637 1779.00
72.4289 1835.00
72.4941 1727.00
72.5593 1776.00
72.6245 1791.00
72.6897 1790.00
72.7549 1838.00
72.8201 1851.00
72.8853 1778.00
72.9505 1761.00
73.0157 1769.00
73.0809 1772.00
73.1461 1789.00
73.2113 1754.00
73.2765 1814.00
73.3417 1835.00
73.4069 1779.00
73.4721 1854.00
73.5373 1798.00
73.6025 1835.00
73.6677 1789.00
73.7329 1732.00
73.7981 1837.00
73.8633 1748.00
73.9285 1759.00
73.9937 1737.00
74.0589 1762.00
74.1241 1808.00
74.1893 1734.00
74.2545 1794.00
74.3197 1880.00
74.3849 1788.00
74.4501 1759.00
74.5153 1653.00
74.5805 1838.00
74.6457 1829.00
74.7109 1763.00
74.7761 1796.00
74.8413 1773.00
74.9065 1736.00
74.9717 1767.00
75.0369 1745.00
75.1021 1775.00
75.1673 1813.00
75.2325 1773.00
75.2977 1796.00
75.3629 1762.00
75.4281 1727.00
75.4933 1828.00
75.5585 1761.00
75.6237 1679.00
75.6889 1797.00
75.7541 1784.00
75.8193 1826.00
75.8845 1830.00
75.9497 1821.00
76.0149 1742.00
76.0801 1791.00
76.1452 1738.00
76.2104 1703.00
76.2756 1767.00
76.3409 1783.00
76.406 1789.00
76.4712 1794.00
76.5364 1783.00
76.6016 1775.00
76.6668 1768.00
76.732 1801.00
76.7972 1793.00
76.8624 1743.00
76.9276 1762.00
76.9928 1716.00
77.058 1763.00
77.1232 1728.00
77.1884 1831.00
77.2536 1833.00
77.3188 1740.00
77.384 1877.00
77.4492 1846.00
77.5144 1769.00
77.5796 1904.00
77.6448 1745.00
77.71 1730.00
77.7752 1854.00
77.8404 1827.00
77.9056 1827.00
77.9708 1832.00
78.036 1772.00
78.1012 1811.00
78.1664 1823.00
78.2316 1768.00
78.2968 1807.00
78.362 1801.00
78.4272 1883.00
78.4924 1765.00
78.5576 1760.00
78.6228 1815.00
78.688 1886.00
78.7532 1767.00
78.8184 1820.00
78.8836 1924.00
78.9488 1753.00
79.014 1815.00
79.0792 1793.00
79.1444 1796.00
79.2096 1841.00
79.2748 1704.00
79.34 1800.00
79.4052 1749.00
79.4704 1806.00
79.5356 1813.00
79.6008 1725.00
79.666 1829.00
79.7312 1816.00
79.7964 1747.00
79.8616 1704.00
79.9268 1744.00
79.992 1758.00
80.0572 1750.00
80.1224 1757.00
80.1876 1855.00
80.2528 1717.00
80.318 1658.00
80.3832 1801.00
80.4484 1741.00
80.5136 1821.00
80.5788 1826.00
80.644 1810.00
80.7092 1726.00
80.7744 1757.00
80.8396 1728.00
80.9048 1797.00
80.9699 1756.00
81.0351 1776.00
81.1003 1805.00
81.1655 1792.00
81.2307 1759.00
81.2959 1764.00
81.3611 1775.00
81.4263 1732.00
81.4915 1756.00
81.5567 1821.00
81.6219 1798.00
81.6871 1791.00
81.7523 1736.00
81.8175 1753.00
81.8827 1716.00
81.9479 1771.00
82.0131 1798.00
82.0783 1773.00
82.1435 1765.00
82.2087 1792.00
82.2739 1770.00
82.3391 1777.00
82.4043 1676.00
82.4695 1751.00
82.5347 1775.00
82.5999 1665.00
82.6651 1798.00
82.7303 1745.00
82.7955 1749.00
82.8607 1782.00
82.9259 1790.00
82.9911 1866.00
83.0563 1721.00
83.1215 1697.00
83.1867 1767.00
83.2519 1765.00
83.3171 1785.00
83.3823 1779.00
83.4475 1854.00
83.5127 1711.00
83.5779 1788.00
83.6431 1785.00
83.7083 1763.00
83.7735 1766.00
83.8387 1784.00
83.9039 1782.00
83.9691 1804.00
84.0343 1760.00
84.0995 1781.00
84.1647 1850.00
84.2299 1836.00
84.2951 1833.00
84.3603 1687.00
84.4255 1782.00
84.4907 1783.00
84.5559 1686.00
84.6211 1708.00
84.6863 1829.00
84.7515 1743.00
84.8167 1850.00
84.8819 1724.00
84.9471 1813.00
85.0123 1800.00
85.0775 1741.00
85.1427 1747.00
85.2079 1758.00
85.2731 1867.00
85.3383 1733.00
85.4035 1828.00
85.4687 1753.00
85.5339 1839.00
85.5991 1827.00
85.6643 1813.00
85.7295 1768.00
85.7946 1776.00
85.8598 1800.00
85.925 1770.00
85.9903 1820.00
86.0554 1747.00
86.1206 1781.00
86.1858 1800.00
86.251 1770.00
86.3162 1813.00
86.3814 1795.00
86.4466 1776.00
86.5118 1787.00
86.577 1875.00
86.6422 1807.00
86.7074 1735.00
86.7726 1770.00
86.8378 1695.00
86.903 1776.00
86.9682 1752.00
87.0334 1798.00
87.0986 1729.00
87.1638 1810.00
87.229 1744.00
87.2942 1783.00
87.3594 1659.00
87.4246 1804.00
87.4898 1846.00
87.555 1776.00
87.6202 1860.00
87.6854 1784.00
87.7506 1762.00
87.8158 1806.00
87.881 1797.00
87.9462 1753.00
88.0114 1844.00
88.0766 1739.00
88.1418 1699.00
88.207 1744.00
88.2722 1803.00
88.3374 1828.00
88.4026 1664.00
88.4678 1823.00
88.533 1791.00
88.5982 1713.00
88.6634 1784.00
88.7286 1844.00
88.7938 1749.00
88.859 1766.00
88.9242 1739.00
88.9894 1830.00
89.0546 1795.00
89.1198 1736.00
89.185 1803.00
89.2502 1783.00
89.3154 1744.00
89.3806 1738.00
89.4458 1706.00
89.511 1728.00
89.5762 1749.00
89.6414 1780.00
89.7066 1780.00
89.7718 1727.00
89.837 1770.00
89.9022 1721.00
89.9674 1785.00
90.0326 1741.00
90.0978 1747.00
90.163 1748.00
90.2282 1818.00
90.2934 1808.00
90.3586 1795.00
90.4238 1734.00
90.489 1843.00
90.5542 1734.00
90.6193 1726.00
90.6845 1768.00
90.7497 1725.00
90.8149 1632.00
90.8801 1803.00
90.9453 1828.00
91.0105 1844.00
91.0757 1772.00
91.1409 1760.00
91.2061 1788.00
91.2713 1729.00
91.3365 1763.00
91.4017 1723.00
91.4669 1660.00
91.5321 1777.00
91.5973 1784.00
91.6625 1761.00
91.7277 1742.00
91.7929 1771.00
91.8581 1690.00
91.9233 1646.00
91.9885 1808.00
92.0537 1812.00
92.1189 1723.00
92.1841 1732.00
92.2493 1690.00
92.3145 1714.00
92.3797 1725.00
92.4449 1763.00
92.5101 1768.00
92.5753 1800.00
92.6405 1776.00
92.7057 1810.00
92.7709 1822.00
92.8361 1786.00
92.9013 1788.00
92.9665 1756.00
93.0317 1784.00
93.0969 1692.00
93.1621 1785.00
93.2273 1795.00
93.2925 1870.00
93.3577 1704.00
93.4229 1795.00
93.4881 1666.00
93.5533 1793.00
93.6185 1829.00
93.6837 1820.00
93.7489 1754.00
93.8141 1793.00
93.8793 1744.00
93.9445 1748.00
94.0097 1731.00
94.0749 1810.00
94.1401 1767.00
94.2053 1782.00
94.2705 1743.00
94.3357 1755.00
94.4009 1725.00
94.4661 1740.00
94.5313 1802.00
94.5965 1783.00
94.6617 1856.00
94.7269 1747.00
94.7921 1729.00
94.8573 1750.00
94.9225 1766.00
94.9877 1781.00
95.0529 1804.00
95.1181 1759.00
95.1833 1798.00
95.2485 1762.00
95.3137 1774.00
95.3789 1758.00
95.444 1831.00
95.5092 1751.00
95.5744 1778.00
95.6396 1719.00
95.7048 1796.00
95.77 1729.00
95.8352 1780.00
95.9004 1709.00
95.9656 1769.00
96.0308 1707.00
96.096 1732.00
96.1612 1800.00
96.2264 1819.00
96.2916 1783.00
96.3568 1743.00
96.422 1715.00
96.4872 1784.00
96.5524 1701.00
96.6176 1861.00
96.6828 1757.00
96.748 1778.00
96.8132 1747.00
96.8784 1796.00
96.9436 1813.00
97.0088 1766.00
97.074 1814.00
97.1392 1745.00
97.2044 1836.00
97.2696 1656.00
97.3348 1763.00
97.4 1696.00
97.4652 1763.00
97.5304 1789.00
97.5956 1753.00
97.6608 1763.00
97.726 1808.00
97.7912 1736.00
97.8564 1733.00
97.9216 1714.00
97.9868 1782.00
98.052 1693.00
98.1172 1745.00
98.1824 1739.00
98.2476 1768.00
98.3128 1718.00
98.378 1749.00
98.4432 1816.00
98.5084 1730.00
98.5736 1808.00
98.6388 1788.00
98.704 1743.00
98.7692 1770.00
98.8344 1715.00
98.8996 1802.00
98.9648 1816.00
99.03 1695.00
99.0952 1787.00
99.1604 1767.00
99.2256 1726.00
99.2908 1760.00
99.356 1757.00
99.4212 1787.00
99.4864 1803.00
99.5516 1758.00
99.6168 1716.00
99.682 1818.00
99.7472 1796.00
99.8124 1767.00
99.8776 1728.00
99.9428 1755.00
100.008 1825.00
100.073 1768.00
100.095 1680.00