File: data/xrd_creation/results/PG_2550-1.xy
9.903433 3092.00
9.968632 3017.00
10.0338 2983.00
10.099 2952.00
10.1642 2940.00
10.2294 2982.00
10.2946 2931.00
10.3598 2829.00
10.425 2822.00
10.4902 2793.00
10.5554 2799.00
10.6206 2868.00
10.6858 2810.00
10.751 2687.00
10.8162 2712.00
10.8814 2659.00
10.9466 2695.00
11.0118 2725.00
11.077 2703.00
11.1422 2565.00
11.2074 2778.00
11.2726 2660.00
11.3378 2732.00
11.403 2636.00
11.4682 2594.00
11.5334 2507.00
11.5986 2512.00
11.6638 2630.00
11.729 2533.00
11.7942 2564.00
11.8594 2419.00
11.9246 2529.00
11.9898 2466.00
12.055 2469.00
12.1202 2380.00
12.1854 2363.00
12.2506 2403.00
12.3158 2457.00
12.381 2320.00
12.4462 2474.00
12.5114 2383.00
12.5766 2407.00
12.6418 2368.00
12.707 2351.00
12.7722 2290.00
12.8374 2369.00
12.9026 2375.00
12.9678 2203.00
13.033 2279.00
13.0982 2348.00
13.1634 2319.00
13.2286 2287.00
13.2938 2197.00
13.359 2144.00
13.4242 2322.00
13.4894 2175.00
13.5546 2214.00
13.6198 2226.00
13.685 2227.00
13.7502 2309.00
13.8154 2237.00
13.8805 2264.00
13.9457 2290.00
14.0109 2280.00
14.0761 2313.00
14.1413 2368.00
14.2065 2386.00
14.2717 2371.00
14.3369 2314.00
14.4021 2322.00
14.4673 2301.00
14.5325 2288.00
14.5977 2252.00
14.6629 2290.00
14.7281 2273.00
14.7933 2282.00
14.8585 2125.00
14.9237 2330.00
14.9889 2282.00
15.0541 2214.00
15.1193 2112.00
15.1845 2226.00
15.2497 2245.00
15.3149 2205.00
15.3801 2238.00
15.4453 2133.00
15.5105 2211.00
15.5757 2068.00
15.6409 2225.00
15.7061 2193.00
15.7713 2177.00
15.8365 2203.00
15.9017 2220.00
15.9669 2233.00
16.0321 2091.00
16.0973 2095.00
16.1625 2183.00
16.2277 2159.00
16.2929 2119.00
16.3581 2153.00
16.4233 2252.00
16.4885 2168.00
16.5537 2081.00
16.6189 2209.00
16.6841 2115.00
16.7493 2159.00
16.8145 2243.00
16.8797 2135.00
16.9449 2169.00
17.0101 2235.00
17.0753 2164.00
17.1405 2191.00
17.2057 2044.00
17.2709 2048.00
17.3361 2176.00
17.4013 2016.00
17.4665 2089.00
17.5317 1931.00
17.5969 2119.00
17.6621 1985.00
17.7273 2032.00
17.7925 2055.00
17.8577 2034.00
17.9229 1979.00
17.9881 2027.00
18.0533 2043.00
18.1185 1972.00
18.1837 1942.00
18.2489 1987.00
18.3141 1915.00
18.3793 1956.00
18.4445 1913.00
18.5097 1934.00
18.5749 1944.00
18.6401 1932.00
18.7052 1939.00
18.7704 1836.00
18.8356 1967.00
18.9008 1924.00
18.966 1949.00
19.0312 1826.00
19.0964 1854.00
19.1616 1890.00
19.2268 1916.00
19.292 1972.00
19.3572 1964.00
19.4224 1899.00
19.4876 1772.00
19.5528 1856.00
19.618 1887.00
19.6832 1816.00
19.7484 1830.00
19.8136 1866.00
19.8788 1862.00
19.944 1884.00
20.0092 1833.00
20.0744 1889.00
20.1396 1850.00
20.2048 1922.00
20.27 1912.00
20.3352 1946.00
20.4004 2065.00
20.4656 2152.00
20.5308 2319.00
20.596 2592.00
20.6612 3168.00
20.7264 4328.00
20.7916 6253.00
20.8568 6689.00
20.922 4047.00
20.9872 2458.00
21.0524 2080.00
21.1176 1991.00
21.1828 1917.00
21.248 1978.00
21.3132 1893.00
21.3784 1841.00
21.4436 1912.00
21.5088 1820.00
21.574 1874.00
21.6392 1699.00
21.7044 1810.00
21.7696 1833.00
21.8348 1803.00
21.9 1706.00
21.9652 1743.00
22.0304 1765.00
22.0956 1871.00
22.1608 1813.00
22.226 1731.00
22.2912 1826.00
22.3564 1764.00
22.4216 1671.00
22.4868 1805.00
22.552 1807.00
22.6172 1770.00
22.6824 1772.00
22.7476 1805.00
22.8128 1802.00
22.878 1864.00
22.9432 1745.00
23.0084 1795.00
23.0736 1714.00
23.1388 1808.00
23.204 1801.00
23.2692 1852.00
23.3344 1719.00
23.3996 1706.00
23.4647 1821.00
23.5299 1734.00
23.5951 1699.00
23.6603 1826.00
23.7255 1805.00
23.7907 1816.00
23.8559 1779.00
23.9211 1743.00
23.9863 1688.00
24.0515 1695.00
24.1167 1770.00
24.1819 1765.00
24.2471 1657.00
24.3123 1743.00
24.3775 1610.00
24.4427 1714.00
24.5079 1647.00
24.5731 1624.00
24.6383 1758.00
24.7035 1823.00
24.7687 1667.00
24.8339 1715.00
24.8991 1744.00
24.9643 1776.00
25.0295 1665.00
25.0947 1645.00
25.1599 1674.00
25.2251 1630.00
25.2903 1725.00
25.3555 1660.00
25.4207 1682.00
25.4859 1705.00
25.5511 1659.00
25.6163 1667.00
25.6815 1629.00
25.7467 1617.00
25.8119 1689.00
25.8771 1708.00
25.9423 1625.00
26.0075 1706.00
26.0727 1655.00
26.1379 1736.00
26.2031 1656.00
26.2683 1711.00
26.3335 1620.00
26.3987 1688.00
26.4639 1750.00
26.5291 1707.00
26.5943 1859.00
26.6595 1780.00
26.7247 1692.00
26.7899 1664.00
26.8551 1687.00
26.9203 1629.00
26.9855 1675.00
27.0507 1685.00
27.1159 1674.00
27.1811 1581.00
27.2463 1745.00
27.3115 1712.00
27.3767 1642.00
27.4419 1673.00
27.5071 1620.00
27.5723 1612.00
27.6375 1629.00
27.7027 1614.00
27.7679 1678.00
27.8331 1764.00
27.8983 1691.00
27.9635 1689.00
28.0287 1741.00
28.0939 1679.00
28.1591 1702.00
28.2243 1700.00
28.2894 1693.00
28.3546 1769.00
28.4198 1826.00
28.485 1954.00
28.5502 1996.00
28.6154 2074.00
28.6806 2001.00
28.7458 2037.00
28.811 2232.00
28.8762 2396.00
28.9414 2469.00
29.0066 2778.00
29.0718 3152.00
29.137 3804.00
29.2022 4920.00
29.2674 7975.00
29.3326 15443.00
29.3978 32107.00
29.463 55073.00
29.5282 42316.00
29.5934 18260.00
29.6586 6453.00
29.7238 4117.00
29.789 3318.00
29.8542 2879.00
29.9194 2437.00
29.9846 2157.00
30.0498 2162.00
30.115 1969.00
30.1802 1998.00
30.2454 1813.00
30.3106 1792.00
30.3758 1888.00
30.441 1798.00
30.5062 1855.00
30.5714 1808.00
30.6366 1760.00
30.7018 1802.00
30.767 1776.00
30.8322 1739.00
30.8974 1801.00
30.9626 1759.00
31.0278 1795.00
31.093 1701.00
31.1582 1803.00
31.2234 1709.00
31.2886 1758.00
31.3538 1660.00
31.419 1761.00
31.4842 1667.00
31.5494 1705.00
31.6146 1734.00
31.6798 1686.00
31.745 1775.00
31.8102 1857.00
31.8754 1900.00
31.9406 1801.00
32.0058 1649.00
32.071 1699.00
32.1362 1652.00
32.2014 1640.00
32.2666 1623.00
32.3318 1744.00
32.397 1685.00
32.4622 1692.00
32.5274 1639.00
32.5926 1586.00
32.6578 1584.00
32.723 1572.00
32.7882 1640.00
32.8534 1569.00
32.9186 1671.00
32.9838 1643.00
33.0489 1649.00
33.1141 1740.00
33.1793 1611.00
33.2445 1697.00
33.3097 1690.00
33.3749 1677.00
33.4401 1646.00
33.5053 1816.00
33.5705 1915.00
33.6357 1929.00
33.7009 1960.00
33.7661 2043.00
33.8313 2374.00
33.8965 3052.00
33.9617 4699.00
34.0269 8880.00
34.0921 14791.00
34.1573 11778.00
34.2225 6860.00
34.2877 3165.00
34.3529 2192.00
34.4181 2100.00
34.4833 1852.00
34.5485 1774.00
34.6137 1722.00
34.6789 1606.00
34.7441 1688.00
34.8093 1655.00
34.8745 1558.00
34.9397 1607.00
35.0049 1619.00
35.0701 1599.00
35.1353 1633.00
35.2005 1654.00
35.2657 1647.00
35.3309 1554.00
35.3961 1586.00
35.4613 1576.00
35.5265 1585.00
35.5917 1564.00
35.6569 1577.00
35.7221 1621.00
35.7873 1572.00
35.8525 1623.00
35.9177 1755.00
35.9829 1756.00
36.0481 2022.00
36.1133 2677.00
36.1785 3908.00
36.2437 4300.00
36.3089 3212.00
36.3741 2074.00
36.4393 1788.00
36.5045 1623.00
36.5697 1591.00
36.6349 1639.00
36.7001 1646.00
36.7653 1659.00
36.8305 1532.00
36.8957 1570.00
36.9609 1548.00
37.0261 1592.00
37.0913 1587.00
37.1565 1815.00
37.2217 2114.00
37.2869 2170.00
37.3521 1916.00
37.4173 1650.00
37.4825 1619.00
37.5477 1557.00
37.6129 1560.00
37.6781 1474.00
37.7433 1481.00
37.8085 1555.00
37.8736 1573.00
37.9388 1516.00
38.004 1588.00
38.0692 1568.00
38.1344 1774.00
38.1996 2079.00
38.2648 2057.00
38.33 1832.00
38.3952 1766.00
38.4604 1574.00
38.5256 1642.00
38.5908 1363.00
38.656 1491.00
38.7212 1491.00
38.7864 1543.00
38.8516 1507.00
38.9168 1494.00
38.982 1626.00
39.0472 1552.00
39.1124 1493.00
39.1776 1513.00
39.2428 1543.00
39.308 1524.00
39.3732 1492.00
39.4384 1546.00
39.5036 1476.00
39.5688 1563.00
39.634 1495.00
39.6992 1580.00
39.7644 1559.00
39.8296 1608.00
39.8948 1635.00
39.96 1878.00
40.0252 2320.00
40.0904 3583.00
40.1556 4951.00
40.2208 3794.00
40.286 2890.00
40.3512 1889.00
40.4164 1693.00
40.4816 1616.00
40.5468 1568.00
40.612 1487.00
40.6772 1425.00
40.7424 1508.00
40.8076 1577.00
40.8728 1486.00
40.938 1466.00
41.0032 1420.00
41.0684 1484.00
41.1336 1513.00
41.1988 1459.00
41.264 1434.00
41.3292 1441.00
41.3944 1478.00
41.4596 1494.00
41.5248 1492.00
41.59 1533.00
41.6552 1523.00
41.7204 1546.00
41.7856 1581.00
41.8508 1616.00
41.916 1656.00
41.9812 2017.00
42.0464 1822.00
42.1116 1794.00
42.1768 1532.00
42.242 1539.00
42.3072 1530.00
42.3724 1543.00
42.4376 1574.00
42.5028 1544.00
42.568 1571.00
42.6332 1528.00
42.6983 1593.00
42.7635 1676.00
42.8287 1594.00
42.8939 1761.00
42.9591 1842.00
43.0243 2319.00
43.0895 3268.00
43.1547 6322.00
43.2199 10266.00
43.2851 7147.00
43.3503 5741.00
43.4155 2819.00
43.4807 2032.00
43.5459 2009.00
43.6111 2213.00
43.6763 3072.00
43.7415 5216.00
43.8067 6166.00
43.8719 4620.00
43.9371 3333.00
44.0023 2025.00
44.0675 1726.00
44.1327 1574.00
44.1979 1582.00
44.2631 1541.00
44.3283 1419.00
44.3935 1517.00
44.4587 1484.00
44.5239 1444.00
44.5891 1519.00
44.6543 1411.00
44.7195 1468.00
44.7847 1542.00
44.8499 1408.00
44.9151 1403.00
44.9803 1538.00
45.0455 1381.00
45.1107 1458.00
45.1759 1411.00
45.2411 1495.00
45.3063 1378.00
45.3715 1411.00
45.4367 1488.00
45.5019 1463.00
45.5671 1367.00
45.6323 1458.00
45.6975 1484.00
45.7627 1516.00
45.8279 1455.00
45.8931 1372.00
45.9583 1471.00
46.0235 1447.00
46.0887 1450.00
46.1539 1418.00
46.2191 1478.00
46.2843 1497.00
46.3495 1440.00
46.4147 1454.00
46.4799 1409.00
46.5451 1382.00
46.6103 1476.00
46.6755 1412.00
46.7407 1619.00
46.8059 1515.00
46.8711 1530.00
46.9363 1617.00
47.0015 1642.00
47.0667 1843.00
47.1319 2432.00
47.1971 3042.00
47.2623 2522.00
47.3275 2209.00
47.3927 1846.00
47.4579 1621.00
47.523 1583.00
47.5882 1611.00
47.6534 1553.00
47.7186 1592.00
47.7838 1630.00
47.849 1564.00
47.9142 1577.00
47.9794 1586.00
48.0446 1651.00
48.1098 1573.00
48.175 1664.00
48.2402 1728.00
48.3054 1847.00
48.3706 2006.00
48.4358 2072.00
48.501 2397.00
48.5662 2885.00
48.6314 4061.00
48.6966 7156.00
48.7618 16468.00
48.827 26061.00
48.8922 16761.00
48.9574 14559.00
49.0226 6805.00
49.0878 3165.00
49.153 2389.00
49.2182 2102.00
49.2834 1868.00
49.3486 1726.00
49.4138 1718.00
49.479 1672.00
49.5442 1647.00
49.6094 1617.00
49.6746 1518.00
49.7398 1606.00
49.805 1611.00
49.8702 1552.00
49.9354 1493.00
50.0006 1559.00
50.0658 1620.00
50.131 1557.00
50.1962 1600.00
50.2614 1666.00
50.3266 2008.00
50.3918 2613.00
50.457 2588.00
50.5222 2179.00
50.5874 1927.00
50.6526 1646.00
50.7178 1584.00
50.783 1524.00
50.8482 1450.00
50.9134 1502.00
50.9786 1520.00
51.0438 1460.00
51.109 1456.00
51.1742 1413.00
51.2394 1369.00
51.3046 1564.00
51.3698 1504.00
51.435 1493.00
51.5002 1508.00
51.5654 1493.00
51.6306 1489.00
51.6958 1486.00
51.761 1458.00
51.8262 1527.00
51.8914 1662.00
51.9566 1714.00
52.0218 1670.00
52.087 1702.00
52.1522 1607.00
52.2174 1471.00
52.2826 1443.00
52.3477 1386.00
52.4129 1522.00
52.4781 1498.00
52.5433 1523.00
52.6085 1404.00
52.6737 1432.00
52.7389 1488.00
52.8041 1470.00
52.8693 1482.00
52.9345 1535.00
52.9997 1470.00
53.0649 1396.00
53.1301 1522.00
53.1953 1555.00
53.2605 1591.00
53.3257 1889.00
53.3909 2401.00
53.4561 3822.00
53.5213 4149.00
53.5865 2991.00
53.6517 2889.00
53.7169 1983.00
53.7821 1624.00
53.8473 1585.00
53.9125 1460.00
53.9777 1507.00
54.0429 1451.00
54.1081 1410.00
54.1733 1552.00
54.2385 1432.00
54.3037 1490.00
54.3689 1475.00
54.4341 1477.00
54.4993 1483.00
54.5645 1464.00
54.6297 1526.00
54.6949 1388.00
54.7601 1446.00
54.8253 1533.00
54.8905 1621.00
54.9557 1920.00
55.0209 1974.00
55.0861 1799.00
55.1513 1713.00
55.2165 1584.00
55.2817 1575.00
55.3469 1497.00
55.4121 1438.00
55.4773 1502.00
55.5425 1416.00
55.6077 1421.00
55.6729 1515.00
55.7381 1484.00
55.8033 1449.00
55.8685 1429.00
55.9337 1477.00
55.9989 1568.00
56.0641 1525.00
56.1293 1575.00
56.1945 1623.00
56.2597 1696.00
56.3249 2010.00
56.3901 2851.00
56.4553 3760.00
56.5205 2853.00
56.5857 2791.00
56.6509 2318.00
56.7161 1756.00
56.7813 1649.00
56.8465 1528.00
56.9117 1544.00
56.9769 1483.00
57.042 1552.00
57.1073 1524.00
57.1724 1532.00
57.2376 1597.00
57.3028 1639.00
57.368 1640.00
57.4332 1835.00
57.4984 1865.00
57.5636 2049.00
57.6288 2389.00
57.694 2903.00
57.7592 4561.00
57.8244 9612.00
57.8896 17077.00
57.9548 11304.00
58.02 9547.00
58.0852 8042.00
58.1504 3698.00
58.2156 2391.00
58.2808 2062.00
58.346 1849.00
58.4112 1691.00
58.4764 1674.00
58.5416 1656.00
58.6068 1576.00
58.672 1598.00
58.7372 1587.00
58.8024 1500.00
58.8676 1550.00
58.9328 1629.00
58.998 1576.00
59.0632 1688.00
59.1284 1969.00
59.1936 2344.00
59.2588 3530.00
59.324 4798.00
59.3892 3327.00
59.4544 3256.00
59.5196 2642.00
59.5848 1849.00
59.65 1538.00
59.7152 1460.00
59.7804 1412.00
59.8456 1476.00
59.9108 1555.00
59.976 1500.00
60.0412 1493.00
60.1064 1462.00
60.1716 1532.00
60.2368 1566.00
60.302 1526.00
60.3672 1511.00
60.4324 1630.00
60.4976 1639.00
60.5628 1799.00
60.628 2551.00
60.6932 3997.00
60.7584 3385.00
60.8236 2663.00
60.8888 2887.00
60.954 2065.00
61.0192 1636.00
61.0844 1499.00
61.1496 1511.00
61.2148 1513.00
61.28 1517.00
61.3452 1470.00
61.4104 1408.00
61.4756 1508.00
61.5408 1427.00
61.606 1438.00
61.6712 1457.00
61.7364 1492.00
61.8016 1447.00
61.8667 1492.00
61.932 1578.00
61.9971 1842.00
62.0623 2464.00
62.1275 2354.00
62.1927 1935.00
62.2579 2101.00
62.3231 1982.00
62.3883 1838.00
62.4535 2374.00
62.5187 3769.00
62.5839 5861.00
62.6491 3657.00
62.7143 3433.00
62.7795 3243.00
62.8447 2094.00
62.9099 1619.00
62.9751 1526.00
63.0403 1534.00
63.1055 1535.00
63.1707 1514.00
63.2359 1477.00
63.3011 1567.00
63.3663 1709.00
63.4315 2012.00
63.4967 1818.00
63.5619 1666.00
63.6271 1777.00
63.6923 1543.00
63.7575 1498.00
63.8227 1473.00
63.8879 1404.00
63.9531 1342.00
64.0183 1439.00
64.0835 1321.00
64.1487 1402.00
64.2139 1443.00
64.2791 1520.00
64.3443 1370.00
64.4095 1497.00
64.4747 1368.00
64.5399 1541.00
64.6051 1585.00
64.6703 1736.00
64.7355 2430.00
64.8007 3022.00
64.8659 2341.00
64.9311 2265.00
64.9963 2244.00
65.0615 1803.00
65.1267 1596.00
65.1919 1466.00
65.2571 1380.00
65.3223 1439.00
65.3875 1396.00
65.4527 1359.00
65.5179 1398.00
65.5831 1441.00
65.6483 1348.00
65.7135 1377.00
65.7787 1418.00
65.8439 1386.00
65.9091 1442.00
65.9743 1612.00
66.0395 1682.00
66.1047 2011.00
66.1699 2030.00
66.2351 1745.00
66.3003 1788.00
66.3655 1626.00
66.4307 1487.00
66.4959 1381.00
66.561 1383.00
66.6263 1399.00
66.6915 1354.00
66.7566 1306.00
66.8218 1321.00
66.887 1321.00
66.9522 1392.00
67.0174 1438.00
67.0826 1432.00
67.1478 1381.00
67.213 1286.00
67.2782 1436.00
67.3434 1398.00
67.4086 1456.00
67.4738 1404.00
67.539 1372.00
67.6042 1393.00
67.6694 1403.00
67.7346 1429.00
67.7998 1381.00
67.865 1331.00
67.9302 1363.00
67.9954 1331.00
68.0606 1340.00
68.1258 1337.00
68.191 1332.00
68.2562 1368.00
68.3214 1349.00
68.3866 1366.00
68.4518 1319.00
68.517 1300.00
68.5822 1369.00
68.6474 1442.00
68.7126 1379.00
68.7778 1417.00
68.843 1317.00
68.9082 1355.00
68.9734 1359.00
69.0386 1428.00
69.1038 1358.00
69.169 1345.00
69.2342 1409.00
69.2994 1445.00
69.3646 1415.00
69.4298 1447.00
69.495 1392.00
69.5602 1289.00
69.6254 1351.00
69.6906 1433.00
69.7558 1425.00
69.821 1443.00
69.8862 1573.00
69.9514 1862.00
70.0166 2419.00
70.0818 2073.00
70.147 1801.00
70.2122 1857.00
70.2774 1905.00
70.3426 1562.00
70.4078 1448.00
70.473 1329.00
70.5382 1430.00
70.6034 1343.00
70.6686 1368.00
70.7338 1378.00
70.799 1357.00
70.8642 1422.00
70.9294 1460.00
70.9946 1463.00
71.0598 1519.00
71.125 1592.00
71.1902 1867.00
71.2554 2610.00
71.3205 3674.00
71.3858 2582.00
71.451 2217.00
71.5162 2453.00
71.5813 2007.00
71.6465 1574.00
71.7117 1475.00
71.7769 1541.00
71.8421 1369.00
71.9073 1396.00
71.9725 1370.00
72.0377 1428.00
72.1029 1372.00
72.1681 1506.00
72.2333 1494.00
72.2985 1566.00
72.3637 1545.00
72.4289 1645.00
72.4941 2063.00
72.5593 2865.00
72.6245 2956.00
72.6897 2070.00
72.7549 2211.00
72.8201 2247.00
72.8853 1718.00
72.9505 1438.00
73.0157 1439.00
73.0809 1362.00
73.1461 1419.00
73.2113 1395.00
73.2765 1337.00
73.3417 1383.00
73.4069 1465.00
73.4721 1394.00
73.5373 1419.00
73.6025 1376.00
73.6677 1493.00
73.7329 1664.00
73.7981 1992.00
73.8633 2288.00
73.9285 1778.00
73.9937 1723.00
74.0589 1866.00
74.1241 1670.00
74.1893 1489.00
74.2545 1488.00
74.3197 1413.00
74.3849 1367.00
74.4501 1351.00
74.5153 1426.00
74.5805 1347.00
74.6457 1452.00
74.7109 1382.00
74.7761 1522.00
74.8413 1509.00
74.9065 1884.00
74.9717 2049.00
75.0369 2138.00
75.1021 2562.00
75.1673 2257.00
75.2325 1886.00
75.2977 1909.00
75.3629 1834.00
75.4281 1507.00
75.4933 1400.00
75.5585 1420.00
75.6237 1367.00
75.6889 1315.00
75.7541 1335.00
75.8193 1269.00
75.8845 1394.00
75.9497 1330.00
76.0149 1399.00
76.0801 1428.00
76.1452 1414.00
76.2104 1550.00
76.2756 1740.00
76.3409 2070.00
76.406 1795.00
76.4712 1582.00
76.5364 1681.00
76.6016 1615.00
76.6668 1475.00
76.732 1388.00
76.7972 1397.00
76.8624 1438.00
76.9276 1408.00
76.9928 1405.00
77.058 1392.00
77.1232 1439.00
77.1884 1467.00
77.2536 1426.00
77.3188 1408.00
77.384 1485.00
77.4492 1684.00
77.5144 2257.00
77.5796 2909.00
77.6448 2542.00
77.71 1993.00
77.7752 2181.00
77.8404 2181.00
77.9056 1681.00
77.9708 1496.00
78.036 1467.00
78.1012 1383.00
78.1664 1386.00
78.2316 1460.00
78.2968 1430.00
78.362 1459.00
78.4272 1523.00
78.4924 1583.00
78.5576 1612.00
78.6228 1752.00
78.688 2234.00
78.7532 3498.00
78.8184 5800.00
78.8836 5150.00
78.9488 3157.00
79.014 3212.00
79.0792 3746.00
79.1444 2629.00
79.2096 1860.00
79.2748 1567.00
79.34 1553.00
79.4052 1432.00
79.4704 1392.00
79.5356 1393.00
79.6008 1370.00
79.666 1347.00
79.7312 1300.00
79.7964 1494.00
79.8616 1342.00
79.9268 1345.00
79.992 1424.00
80.0572 1445.00
80.1224 1343.00
80.1876 1358.00
80.2528 1512.00
80.318 1394.00
80.3832 1368.00
80.4484 1369.00
80.5136 1371.00
80.5788 1414.00
80.644 1367.00
80.7092 1401.00
80.7744 1321.00
80.8396 1376.00
80.9048 1429.00
80.9699 1466.00
81.0351 1551.00
81.1003 1693.00
81.1655 2114.00
81.2307 3118.00
81.2959 3638.00
81.3611 2597.00
81.4263 2021.00
81.4915 2515.00
81.5567 2425.00
81.6219 1782.00
81.6871 1554.00
81.7523 1409.00
81.8175 1451.00
81.8827 1443.00
81.9479 1436.00
82.0131 1373.00
82.0783 1318.00
82.1435 1401.00
82.2087 1303.00
82.2739 1459.00
82.3391 1449.00
82.4043 1529.00
82.4695 1720.00
82.5347 1721.00
82.5999 1546.00
82.6651 1497.00
82.7303 1558.00
82.7955 1561.00
82.8607 1385.00
82.9259 1324.00
82.9911 1393.00
83.0563 1396.00
83.1215 1300.00
83.1867 1441.00
83.2519 1369.00
83.3171 1360.00
83.3823 1362.00
83.4475 1360.00
83.5127 1392.00
83.5779 1466.00
83.6431 1517.00
83.7083 1894.00
83.7735 1701.00
83.8387 1513.00
83.9039 1559.00
83.9691 1708.00
84.0343 1553.00
84.0995 1412.00
84.1647 1432.00
84.2299 1316.00
84.2951 1411.00
84.3603 1327.00
84.4255 1360.00
84.4907 1395.00
84.5559 1376.00
84.6211 1358.00
84.6863 1387.00
84.7515 1515.00
84.8167 1672.00
84.8819 2062.00
84.9471 2404.00
85.0123 1880.00
85.0775 1577.00
85.1427 1628.00
85.2079 1876.00
85.2731 1610.00
85.3383 1478.00
85.4035 1501.00
85.4687 1381.00
85.5339 1354.00
85.5991 1319.00
85.6643 1376.00
85.7295 1320.00
85.7946 1394.00
85.8598 1335.00
85.925 1398.00
85.9903 1341.00
86.0554 1358.00
86.1206 1474.00
86.1858 1397.00
86.251 1379.00
86.3162 1334.00
86.3814 1425.00
86.4466 1311.00
86.5118 1257.00
86.577 1418.00
86.6422 1321.00
86.7074 1357.00
86.7726 1361.00
86.8378 1338.00
86.903 1435.00
86.9682 1422.00
87.0334 1343.00
87.0986 1486.00
87.1638 1444.00
87.229 1679.00
87.2942 2076.00
87.3594 2379.00
87.4246 1987.00
87.4898 1550.00
87.555 1795.00
87.6202 1965.00
87.6854 1645.00
87.7506 1496.00
87.8158 1400.00
87.881 1306.00
87.9462 1328.00
88.0114 1303.00
88.0766 1342.00
88.1418 1382.00
88.207 1368.00
88.2722 1321.00
88.3374 1310.00
88.4026 1355.00
88.4678 1347.00
88.533 1307.00
88.5982 1324.00
88.6634 1361.00
88.7286 1365.00
88.7938 1402.00
88.859 1308.00
88.9242 1301.00
88.9894 1364.00
89.0546 1355.00
89.1198 1410.00
89.185 1342.00
89.2502 1376.00
89.3154 1406.00
89.3806 1399.00
89.4458 1488.00
89.511 1478.00
89.5762 1413.00
89.6414 1732.00
89.7066 2037.00
89.7718 2469.00
89.837 1931.00
89.9022 1615.00
89.9674 1711.00
90.0326 1947.00
90.0978 1804.00
90.163 1481.00
90.2282 1462.00
90.2934 1375.00
90.3586 1407.00
90.4238 1423.00
90.489 1451.00
90.5542 1434.00
90.6193 1516.00
90.6845 1505.00
90.7497 1596.00
90.8149 1802.00
90.8801 2459.00
90.9453 3683.00
91.0105 3487.00
91.0757 2273.00
91.1409 2003.00
91.2061 2254.00
91.2713 2635.00
91.3365 1962.00
91.4017 1687.00
91.4669 1647.00
91.5321 1421.00
91.5973 1478.00
91.6625 1419.00
91.7277 1485.00
91.7929 1394.00
91.8581 1440.00
91.9233 1378.00
91.9885 1552.00
92.0537 1666.00
92.1189 2134.00
92.1841 2499.00
92.2493 1999.00
92.3145 1639.00
92.3797 1741.00
92.4449 1883.00
92.5101 1808.00
92.5753 1518.00
92.6405 1478.00
92.7057 1377.00
92.7709 1327.00
92.8361 1385.00
92.9013 1428.00
92.9665 1338.00
93.0317 1369.00
93.0969 1368.00
93.1621 1448.00
93.2273 1444.00
93.2925 1624.00
93.3577 1956.00
93.4229 1983.00
93.4881 1623.00
93.5533 1573.00
93.6185 1586.00
93.6837 1691.00
93.7489 1589.00
93.8141 1467.00
93.8793 1468.00
93.9445 1467.00
94.0097 1417.00
94.0749 1429.00
94.1401 1454.00
94.2053 1614.00
94.2705 1710.00
94.3357 1529.00
94.4009 1573.00
94.4661 1513.00
94.5313 1752.00
94.5965 1890.00
94.6617 1609.00
94.7269 1496.00
94.7921 1486.00
94.8573 1518.00
94.9225 1464.00
94.9877 1436.00
95.0529 1343.00
95.1181 1327.00
95.1833 1352.00
95.2485 1448.00
95.3137 1446.00
95.3789 1437.00
95.444 1419.00
95.5092 1429.00
95.5744 1522.00
95.6396 1564.00
95.7048 1867.00
95.77 2740.00
95.8352 2669.00
95.9004 2079.00
95.9656 1741.00
96.0308 1832.00
96.096 2092.00
96.1612 2026.00
96.2264 1697.00
96.2916 1559.00
96.3568 1465.00
96.422 1343.00
96.4872 1402.00
96.5524 1407.00
96.6176 1369.00
96.6828 1392.00
96.748 1336.00
96.8132 1420.00
96.8784 1397.00
96.9436 1653.00
97.0088 1761.00
97.074 1687.00
97.1392 1465.00
97.2044 1391.00
97.2696 1569.00
97.3348 1600.00
97.4 1530.00
97.4652 1470.00
97.5304 1403.00
97.5956 1385.00
97.6608 1367.00
97.726 1379.00
97.7912 1375.00
97.8564 1397.00
97.9216 1467.00
97.9868 1576.00
98.052 1682.00
98.1172 2028.00
98.1824 2832.00
98.2476 3417.00
98.3128 2490.00
98.378 1954.00
98.4432 1963.00
98.5084 2080.00
98.5736 2299.00
98.6388 2029.00
98.704 1689.00
98.7692 1497.00
98.8344 1381.00
98.8996 1437.00
98.9648 1417.00
99.03 1401.00
99.0952 1490.00
99.1604 1478.00
99.2256 1494.00
99.2908 1569.00
99.356 1917.00
99.4212 2546.00
99.4864 2544.00
99.5516 2017.00
99.6168 1764.00
99.682 1748.00
99.7472 1928.00
99.8124 2051.00
99.8776 1684.00
99.9428 1548.00
100.008 1406.00
100.073 1366.00
100.095 1432.00