File: data/xrd_creation/results/PG_2545-1.xy
9.903433 2827.00
9.968632 2717.00
10.0338 2748.00
10.099 2843.00
10.1642 2776.00
10.2294 2773.00
10.2946 2760.00
10.3598 2695.00
10.425 2662.00
10.4902 2557.00
10.5554 2713.00
10.6206 2570.00
10.6858 2541.00
10.751 2635.00
10.8162 2625.00
10.8814 2456.00
10.9466 2495.00
11.0118 2569.00
11.077 2549.00
11.1422 2451.00
11.2074 2420.00
11.2726 2416.00
11.3378 2408.00
11.403 2344.00
11.4682 2431.00
11.5334 2502.00
11.5986 2375.00
11.6638 2383.00
11.729 2360.00
11.7942 2346.00
11.8594 2287.00
11.9246 2278.00
11.9898 2279.00
12.055 2249.00
12.1202 2252.00
12.1854 2211.00
12.2506 2292.00
12.3158 2256.00
12.381 2190.00
12.4462 2242.00
12.5114 2180.00
12.5766 2147.00
12.6418 2207.00
12.707 2303.00
12.7722 2252.00
12.8374 2173.00
12.9026 2241.00
12.9678 2266.00
13.033 2203.00
13.0982 2263.00
13.1634 2213.00
13.2286 2201.00
13.2938 2175.00
13.359 2219.00
13.4242 2125.00
13.4894 2107.00
13.5546 2147.00
13.6198 2063.00
13.685 2070.00
13.7502 2101.00
13.8154 2095.00
13.8805 2090.00
13.9457 2112.00
14.0109 2103.00
14.0761 2168.00
14.1413 2112.00
14.2065 1994.00
14.2717 2050.00
14.3369 2012.00
14.4021 2116.00
14.4673 2065.00
14.5325 1992.00
14.5977 2060.00
14.6629 1873.00
14.7281 2069.00
14.7933 2019.00
14.8585 1954.00
14.9237 2023.00
14.9889 1914.00
15.0541 2031.00
15.1193 1863.00
15.1845 1971.00
15.2497 1904.00
15.3149 2073.00
15.3801 1903.00
15.4453 2004.00
15.5105 2009.00
15.5757 1906.00
15.6409 1968.00
15.7061 2034.00
15.7713 1973.00
15.8365 2016.00
15.9017 1829.00
15.9669 2000.00
16.0321 1960.00
16.0973 1846.00
16.1625 1910.00
16.2277 1900.00
16.2929 1911.00
16.3581 1850.00
16.4233 1929.00
16.4885 1911.00
16.5537 1905.00
16.6189 1884.00
16.6841 1865.00
16.7493 1768.00
16.8145 1840.00
16.8797 1903.00
16.9449 1838.00
17.0101 1918.00
17.0753 1934.00
17.1405 1930.00
17.2057 1880.00
17.2709 1864.00
17.3361 1833.00
17.4013 1773.00
17.4665 1985.00
17.5317 1805.00
17.5969 1780.00
17.6621 1749.00
17.7273 1888.00
17.7925 1789.00
17.8577 1823.00
17.9229 1909.00
17.9881 1817.00
18.0533 1858.00
18.1185 1766.00
18.1837 1908.00
18.2489 1831.00
18.3141 1923.00
18.3793 1866.00
18.4445 1885.00
18.5097 1791.00
18.5749 1809.00
18.6401 1756.00
18.7052 1797.00
18.7704 1744.00
18.8356 1829.00
18.9008 1739.00
18.966 1755.00
19.0312 1709.00
19.0964 1887.00
19.1616 1714.00
19.2268 1783.00
19.292 1771.00
19.3572 1818.00
19.4224 1735.00
19.4876 1792.00
19.5528 1788.00
19.618 1703.00
19.6832 1804.00
19.7484 1755.00
19.8136 1692.00
19.8788 1866.00
19.944 1760.00
20.0092 1741.00
20.0744 1716.00
20.1396 1861.00
20.2048 1810.00
20.27 1992.00
20.3352 2073.00
20.4004 2039.00
20.4656 2060.00
20.5308 2017.00
20.596 1876.00
20.6612 1841.00
20.7264 1739.00
20.7916 1674.00
20.8568 1783.00
20.922 1686.00
20.9872 1807.00
21.0524 1773.00
21.1176 1828.00
21.1828 1848.00
21.248 1827.00
21.3132 1845.00
21.3784 1779.00
21.4436 1731.00
21.5088 1605.00
21.574 1675.00
21.6392 1653.00
21.7044 1661.00
21.7696 1726.00
21.8348 1679.00
21.9 1663.00
21.9652 1663.00
22.0304 1677.00
22.0956 1592.00
22.1608 1678.00
22.226 1692.00
22.2912 1637.00
22.3564 1663.00
22.4216 1700.00
22.4868 1643.00
22.552 1679.00
22.6172 1692.00
22.6824 1657.00
22.7476 1620.00
22.8128 1620.00
22.878 1677.00
22.9432 1652.00
23.0084 1698.00
23.0736 1682.00
23.1388 1634.00
23.204 1743.00
23.2692 1671.00
23.3344 1664.00
23.3996 1696.00
23.4647 1687.00
23.5299 1628.00
23.5951 1572.00
23.6603 1611.00
23.7255 1574.00
23.7907 1592.00
23.8559 1652.00
23.9211 1534.00
23.9863 1572.00
24.0515 1634.00
24.1167 1703.00
24.1819 1599.00
24.2471 1667.00
24.3123 1669.00
24.3775 1707.00
24.4427 1661.00
24.5079 1675.00
24.5731 1700.00
24.6383 1706.00
24.7035 1761.00
24.7687 1816.00
24.8339 2002.00
24.8991 2336.00
24.9643 3035.00
25.0295 4646.00
25.0947 7380.00
25.1599 10446.00
25.2251 12104.00
25.2903 12473.00
25.3555 11344.00
25.4207 8416.00
25.4859 5012.00
25.5511 3274.00
25.6163 2861.00
25.6815 3671.00
25.7467 5330.00
25.8119 6569.00
25.8771 6915.00
25.9423 7094.00
26.0075 6219.00
26.0727 4686.00
26.1379 2827.00
26.2031 1956.00
26.2683 1757.00
26.3335 1773.00
26.3987 1628.00
26.4639 1570.00
26.5291 1603.00
26.5943 1606.00
26.6595 1530.00
26.7247 1636.00
26.7899 1612.00
26.8551 1576.00
26.9203 1501.00
26.9855 1531.00
27.0507 1467.00
27.1159 1485.00
27.1811 1542.00
27.2463 1529.00
27.3115 1492.00
27.3767 1592.00
27.4419 1546.00
27.5071 1486.00
27.5723 1466.00
27.6375 1501.00
27.7027 1551.00
27.7679 1517.00
27.8331 1461.00
27.8983 1564.00
27.9635 1407.00
28.0287 1444.00
28.0939 1540.00
28.1591 1500.00
28.2243 1440.00
28.2894 1444.00
28.3546 1418.00
28.4198 1480.00
28.485 1417.00
28.5502 1454.00
28.6154 1418.00
28.6806 1473.00
28.7458 1472.00
28.811 1481.00
28.8762 1479.00
28.9414 1425.00
29.0066 1371.00
29.0718 1496.00
29.137 1416.00
29.2022 1426.00
29.2674 1379.00
29.3326 1449.00
29.3978 1423.00
29.463 1617.00
29.5282 1982.00
29.5934 2552.00
29.6586 2701.00
29.7238 2719.00
29.789 2710.00
29.8542 2309.00
29.9194 1850.00
29.9846 1586.00
30.0498 1438.00
30.115 1484.00
30.1802 1472.00
30.2454 1397.00
30.3106 1415.00
30.3758 1395.00
30.441 1379.00
30.5062 1333.00
30.5714 1439.00
30.6366 1320.00
30.7018 1352.00
30.767 1337.00
30.8322 1422.00
30.8974 1385.00
30.9626 1380.00
31.0278 1444.00
31.093 1403.00
31.1582 1507.00
31.2234 1560.00
31.2886 1621.00
31.3538 1897.00
31.419 2181.00
31.4842 2490.00
31.5494 2639.00
31.6146 2736.00
31.6798 2549.00
31.745 2219.00
31.8102 1791.00
31.8754 1596.00
31.9406 1446.00
32.0058 1349.00
32.071 1357.00
32.1362 1345.00
32.2014 1331.00
32.2666 1354.00
32.3318 1432.00
32.397 1360.00
32.4622 1304.00
32.5274 1353.00
32.5926 1367.00
32.6578 1325.00
32.723 1318.00
32.7882 1354.00
32.8534 1345.00
32.9186 1309.00
32.9838 1320.00
33.0489 1342.00
33.1141 1330.00
33.1793 1274.00
33.2445 1292.00
33.3097 1261.00
33.3749 1249.00
33.4401 1286.00
33.5053 1300.00
33.5705 1304.00
33.6357 1317.00
33.7009 1311.00
33.7661 1324.00
33.8313 1281.00
33.8965 1311.00
33.9617 1268.00
34.0269 1292.00
34.0921 1342.00
34.1573 1247.00
34.2225 1312.00
34.2877 1289.00
34.3529 1426.00
34.4181 1555.00
34.4833 1785.00
34.5485 1962.00
34.6137 2144.00
34.6789 2090.00
34.7441 2051.00
34.8093 1753.00
34.8745 1615.00
34.9397 1690.00
35.0049 1859.00
35.0701 2509.00
35.1353 2983.00
35.2005 3239.00
35.2657 3410.00
35.3309 2997.00
35.3961 2547.00
35.4613 2015.00
35.5265 1668.00
35.5917 1557.00
35.6569 1423.00
35.7221 1414.00
35.7873 1408.00
35.8525 1439.00
35.9177 1464.00
35.9829 1632.00
36.0481 2022.00
36.1133 2829.00
36.1785 3785.00
36.2437 4377.00
36.3089 4642.00
36.3741 4576.00
36.4393 4689.00
36.5045 5037.00
36.5697 5507.00
36.6349 5795.00
36.7001 5869.00
36.7653 4970.00
36.8305 3805.00
36.8957 2897.00
36.9609 2169.00
37.0261 1798.00
37.0913 1605.00
37.1565 1609.00
37.2217 1414.00
37.2869 1348.00
37.3521 1268.00
37.4173 1284.00
37.4825 1263.00
37.5477 1233.00
37.6129 1292.00
37.6781 1256.00
37.7433 1207.00
37.8085 1200.00
37.8736 1179.00
37.9388 1260.00
38.004 1262.00
38.0692 1201.00
38.1344 1299.00
38.1996 1243.00
38.2648 1257.00
38.33 1279.00
38.3952 1186.00
38.4604 1215.00
38.5256 1225.00
38.5908 1188.00
38.656 1264.00
38.7212 1157.00
38.7864 1262.00
38.8516 1167.00
38.9168 1136.00
38.982 1222.00
39.0472 1159.00
39.1124 1195.00
39.1776 1219.00
39.2428 1240.00
39.308 1105.00
39.3732 1235.00
39.4384 1178.00
39.5036 1286.00
39.5688 1269.00
39.634 1269.00
39.6992 1355.00
39.7644 1477.00
39.8296 1461.00
39.8948 1590.00
39.96 1509.00
40.0252 1364.00
40.0904 1318.00
40.1556 1215.00
40.2208 1238.00
40.286 1249.00
40.3512 1210.00
40.4164 1181.00
40.4816 1242.00
40.5468 1141.00
40.612 1183.00
40.6772 1174.00
40.7424 1193.00
40.8076 1166.00
40.8728 1242.00
40.938 1210.00
41.0032 1207.00
41.0684 1283.00
41.1336 1266.00
41.1988 1457.00
41.264 1799.00
41.3292 2187.00
41.3944 2452.00
41.4596 2456.00
41.5248 2244.00
41.59 1855.00
41.6552 1526.00
41.7204 1354.00
41.7856 1251.00
41.8508 1198.00
41.916 1182.00
41.9812 1247.00
42.0464 1202.00
42.1116 1234.00
42.1768 1143.00
42.242 1170.00
42.3072 1197.00
42.3724 1213.00
42.4376 1233.00
42.5028 1282.00
42.568 1269.00
42.6332 1334.00
42.6983 1462.00
42.7635 1827.00
42.8287 2705.00
42.8939 3735.00
42.9591 4590.00
43.0243 4814.00
43.0895 4538.00
43.1547 3575.00
43.2199 2501.00
43.2851 1924.00
43.3503 1407.00
43.4155 1307.00
43.4807 1248.00
43.5459 1196.00
43.6111 1275.00
43.6763 1307.00
43.7415 1348.00
43.8067 1298.00
43.8719 1504.00
43.9371 2103.00
44.0023 3231.00
44.0675 5023.00
44.1327 6318.00
44.1979 6640.00
44.2631 6227.00
44.3283 4770.00
44.3935 3243.00
44.4587 2223.00
44.5239 1550.00
44.5891 1335.00
44.6543 1315.00
44.7195 1252.00
44.7847 1243.00
44.8499 1237.00
44.9151 1236.00
44.9803 1242.00
45.0455 1312.00
45.1107 1210.00
45.1759 1274.00
45.2411 1268.00
45.3063 1221.00
45.3715 1310.00
45.4367 1351.00
45.5019 1612.00
45.5671 2118.00
45.6323 3062.00
45.6975 3462.00
45.7627 3635.00
45.8279 3403.00
45.8931 2653.00
45.9583 1954.00
46.0235 1545.00
46.0887 1205.00
46.1539 1257.00
46.2191 1202.00
46.2843 1235.00
46.3495 1309.00
46.4147 1469.00
46.4799 1760.00
46.5451 2393.00
46.6103 2958.00
46.6755 3205.00
46.7407 3108.00
46.8059 2552.00
46.8711 2014.00
46.9363 1611.00
47.0015 1315.00
47.0667 1267.00
47.1319 1263.00
47.1971 1163.00
47.2623 1287.00
47.3275 1209.00
47.3927 1273.00
47.4579 1399.00
47.523 1546.00
47.5882 2184.00
47.6534 3228.00
47.7186 4206.00
47.7838 4572.00
47.849 4722.00
47.9142 3967.00
47.9794 2980.00
48.0446 2100.00
48.1098 1522.00
48.175 1271.00
48.2402 1197.00
48.3054 1125.00
48.3706 1199.00
48.4358 1176.00
48.501 1179.00
48.5662 1141.00
48.6314 1104.00
48.6966 1140.00
48.7618 1163.00
48.827 1118.00
48.8922 1190.00
48.9574 1134.00
49.0226 1093.00
49.0878 1117.00
49.153 1196.00
49.2182 1267.00
49.2834 1210.00
49.3486 1291.00
49.4138 1214.00
49.479 1233.00
49.5442 1179.00
49.6094 1220.00
49.6746 1300.00
49.7398 1367.00
49.805 1818.00
49.8702 2819.00
49.9354 3599.00
50.0006 3983.00
50.0658 4166.00
50.131 3656.00
50.1962 3200.00
50.2614 2920.00
50.3266 2698.00
50.3918 2694.00
50.457 2429.00
50.5222 2153.00
50.5874 1852.00
50.6526 1509.00
50.7178 1462.00
50.783 1373.00
50.8482 1333.00
50.9134 1266.00
50.9786 1134.00
51.0438 1166.00
51.109 1160.00
51.1742 1084.00
51.2394 1084.00
51.3046 1081.00
51.3698 1123.00
51.435 1057.00
51.5002 1163.00
51.5654 1247.00
51.6306 1406.00
51.6958 1600.00
51.761 1603.00
51.8262 1559.00
51.8914 1341.00
51.9566 1176.00
52.0218 1169.00
52.087 1142.00
52.1522 1029.00
52.2174 1040.00
52.2826 1031.00
52.3477 1044.00
52.4129 1091.00
52.4781 1052.00
52.5433 1056.00
52.6085 1018.00
52.6737 1070.00
52.7389 1028.00
52.8041 1067.00
52.8693 1137.00
52.9345 1043.00
52.9997 1263.00
53.0649 1266.00
53.1301 1422.00
53.1953 1382.00
53.2605 1284.00
53.3257 1205.00
53.3909 1105.00
53.4561 1065.00
53.5213 1066.00
53.5865 1051.00
53.6517 1136.00
53.7169 1087.00
53.7821 1090.00
53.8473 1064.00
53.9125 1026.00
53.9777 1019.00
54.0429 1018.00
54.1081 959.00
54.1733 1081.00
54.2385 1031.00
54.3037 1038.00
54.3689 1022.00
54.4341 991.00
54.4993 991.00
54.5645 1008.00
54.6297 988.00
54.6949 1023.00
54.7601 1034.00
54.8253 1024.00
54.8905 1034.00
54.9557 1170.00
55.0209 1325.00
55.0861 1220.00
55.1513 1279.00
55.2165 1147.00
55.2817 1151.00
55.3469 1057.00
55.4121 1058.00
55.4773 991.00
55.5425 1020.00
55.6077 997.00
55.6729 1008.00
55.7381 994.00
55.8033 992.00
55.8685 997.00
55.9337 1046.00
55.9989 943.00
56.0641 1024.00
56.1293 982.00
56.1945 999.00
56.2597 1036.00
56.3249 998.00
56.3901 1005.00
56.4553 1017.00
56.5205 987.00
56.5857 1163.00
56.6509 1189.00
56.7161 1300.00
56.7813 1266.00
56.8465 1313.00
56.9117 1262.00
56.9769 1201.00
57.042 1172.00
57.1073 1194.00
57.1724 1552.00
57.2376 1910.00
57.3028 2021.00
57.368 2192.00
57.4332 1969.00
57.4984 1683.00
57.5636 1461.00
57.6288 1286.00
57.694 1210.00
57.7592 1183.00
57.8244 1223.00
57.8896 1078.00
57.9548 1121.00
58.02 1063.00
58.0852 1034.00
58.1504 991.00
58.2156 1097.00
58.2808 965.00
58.346 985.00
58.4112 1024.00
58.4764 1023.00
58.5416 1073.00
58.6068 1085.00
58.672 1125.00
58.7372 1204.00
58.8024 1594.00
58.8676 1940.00
58.9328 2039.00
58.998 2071.00
59.0632 1774.00
59.1284 1593.00
59.1936 1410.00
59.2588 1209.00
59.324 1049.00
59.3892 1042.00
59.4544 1066.00
59.5196 1102.00
59.5848 1069.00
59.65 1084.00
59.7152 1290.00
59.7804 1635.00
59.8456 1949.00
59.9108 1944.00
59.976 1941.00
60.0412 1683.00
60.1064 1470.00
60.1716 1293.00
60.2368 1121.00
60.302 1064.00
60.3672 1026.00
60.4324 1080.00
60.4976 1021.00
60.5628 1085.00
60.628 1081.00
60.6932 1042.00
60.7584 1129.00
60.8236 1114.00
60.8888 1020.00
60.954 1038.00
61.0192 1001.00
61.0844 1029.00
61.1496 890.00
61.2148 1008.00
61.28 1016.00
61.3452 1018.00
61.4104 1032.00
61.4756 1087.00
61.5408 1094.00
61.606 1134.00
61.6712 1111.00
61.7364 1089.00
61.8016 1050.00
61.8667 1078.00
61.932 1002.00
61.9971 1065.00
62.0623 1021.00
62.1275 1216.00
62.1927 1490.00
62.2579 2091.00
62.3231 2480.00
62.3883 2723.00
62.4535 2710.00
62.5187 2385.00
62.5839 2092.00
62.6491 1735.00
62.7143 1523.00
62.7795 1486.00
62.8447 1466.00
62.9099 1416.00
62.9751 1355.00
63.0403 1260.00
63.1055 1125.00
63.1707 1076.00
63.2359 1050.00
63.3011 941.00
63.3663 1063.00
63.4315 976.00
63.4967 1050.00
63.5619 1045.00
63.6271 1168.00
63.6923 1298.00
63.7575 1322.00
63.8227 1493.00
63.8879 1682.00
63.9531 1688.00
64.0183 1771.00
64.0835 1671.00
64.1487 1576.00
64.2139 1382.00
64.2791 1223.00
64.3443 1130.00
64.4095 1011.00
64.4747 1006.00
64.5399 963.00
64.6051 970.00
64.6703 951.00
64.7355 953.00
64.8007 953.00
64.8659 981.00
64.9311 988.00
64.9963 987.00
65.0615 1103.00
65.1267 1044.00
65.1919 1199.00
65.2571 1321.00
65.3223 1368.00
65.3875 1483.00
65.4527 1496.00
65.5179 1629.00
65.5831 1529.00
65.6483 1579.00
65.7135 1449.00
65.7787 1381.00
65.8439 1351.00
65.9091 1256.00
65.9743 1273.00
66.0395 1176.00
66.1047 1332.00
66.1699 1319.00
66.2351 1263.00
66.3003 1311.00
66.3655 1146.00
66.4307 1050.00
66.4959 1105.00
66.561 1087.00
66.6263 1212.00
66.6915 1214.00
66.7566 1271.00
66.8218 1198.00
66.887 1171.00
66.9522 1089.00
67.0174 1022.00
67.0826 933.00
67.1478 963.00
67.213 958.00
67.2782 949.00
67.3434 894.00
67.4086 887.00
67.4738 959.00
67.539 906.00
67.6042 906.00
67.6694 935.00
67.7346 864.00
67.7998 870.00
67.865 871.00
67.9302 902.00
67.9954 889.00
68.0606 929.00
68.1258 954.00
68.191 939.00
68.2562 901.00
68.3214 876.00
68.3866 880.00
68.4518 897.00
68.517 969.00
68.5822 955.00
68.6474 988.00
68.7126 946.00
68.7778 1002.00
68.843 918.00
68.9082 978.00
68.9734 939.00
69.0386 873.00
69.1038 925.00
69.169 935.00
69.2342 901.00
69.2994 900.00
69.3646 904.00
69.4298 958.00
69.495 917.00
69.5602 870.00
69.6254 911.00
69.6906 913.00
69.7558 934.00
69.821 923.00
69.8862 888.00
69.9514 855.00
70.0166 886.00
70.0818 977.00
70.147 921.00
70.2122 907.00
70.2774 877.00
70.3426 942.00
70.4078 907.00
70.473 865.00
70.5382 911.00
70.6034 855.00
70.6686 875.00
70.7338 906.00
70.799 885.00
70.8642 964.00
70.9294 965.00
70.9946 952.00
71.0598 909.00
71.125 915.00
71.1902 986.00
71.2554 872.00
71.3205 870.00
71.3858 905.00
71.451 913.00
71.5162 967.00
71.5813 922.00
71.6465 968.00
71.7117 994.00
71.7769 993.00
71.8421 1054.00
71.9073 1217.00
71.9725 1619.00
72.0377 1799.00
72.1029 1796.00
72.1681 1780.00
72.2333 1633.00
72.2985 1336.00
72.3637 1232.00
72.4289 1126.00
72.4941 1033.00
72.5593 952.00
72.6245 1039.00
72.6897 1039.00
72.7549 1129.00
72.8201 1267.00
72.8853 1379.00
72.9505 1321.00
73.0157 1312.00
73.0809 1258.00
73.1461 1133.00
73.2113 1088.00
73.2765 999.00
73.3417 1022.00
73.4069 1041.00
73.4721 1105.00
73.5373 1218.00
73.6025 1508.00
73.6677 1993.00
73.7329 2379.00
73.7981 2515.00
73.8633 2398.00
73.9285 2230.00
73.9937 1891.00
74.0589 1657.00
74.1241 1483.00
74.1893 1428.00
74.2545 1449.00
74.3197 1386.00
74.3849 1375.00
74.4501 1366.00
74.5153 1389.00
74.5805 1523.00
74.6457 1563.00
74.7109 1575.00
74.7761 1601.00
74.8413 1379.00
74.9065 1252.00
74.9717 1309.00
75.0369 1235.00
75.1021 1340.00
75.1673 1592.00
75.2325 1779.00
75.2977 1724.00
75.3629 1513.00
75.4281 1476.00
75.4933 1290.00
75.5585 1210.00
75.6237 1128.00
75.6889 1025.00
75.7541 1025.00
75.8193 984.00
75.8845 1153.00
75.9497 1282.00
76.0149 1452.00
76.0801 1619.00
76.1452 1566.00
76.2104 1619.00
76.2756 1341.00
76.3409 1304.00
76.406 1198.00
76.4712 1083.00
76.5364 930.00
76.6016 971.00
76.6668 983.00
76.732 961.00
76.7972 1068.00
76.8624 1109.00
76.9276 1023.00
76.9928 931.00
77.058 993.00
77.1232 959.00
77.1884 967.00
77.2536 994.00
77.3188 1033.00
77.384 980.00
77.4492 995.00
77.5144 1111.00
77.5796 1395.00
77.6448 1519.00
77.71 1531.00
77.7752 1616.00
77.8404 1378.00
77.9056 1420.00
77.9708 1245.00
78.036 1179.00
78.1012 1161.00
78.1664 984.00
78.2316 1039.00
78.2968 974.00
78.362 937.00
78.4272 968.00
78.4924 1048.00
78.5576 1080.00
78.6228 1272.00
78.688 1333.00
78.7532 1363.00
78.8184 1213.00
78.8836 1206.00
78.9488 1077.00
79.014 1097.00
79.0792 874.00
79.1444 897.00
79.2096 918.00
79.2748 896.00
79.34 859.00
79.4052 917.00
79.4704 920.00
79.5356 936.00
79.6008 917.00
79.666 838.00
79.7312 910.00
79.7964 887.00
79.8616 911.00
79.9268 916.00
79.992 1065.00
80.0572 1269.00
80.1224 1411.00
80.1876 1306.00
80.2528 1310.00
80.318 1238.00
80.3832 1177.00
80.4484 1089.00
80.5136 1001.00
80.5788 974.00
80.644 875.00
80.7092 879.00
80.7744 885.00
80.8396 870.00
80.9048 896.00
80.9699 907.00
81.0351 889.00
81.1003 902.00
81.1655 945.00
81.2307 887.00
81.2959 876.00
81.3611 896.00
81.4263 895.00
81.4915 899.00
81.5567 974.00
81.6219 985.00
81.6871 949.00
81.7523 1002.00
81.8175 1080.00
81.8827 1196.00
81.9479 1258.00
82.0131 1410.00
82.0783 1486.00
82.1435 1456.00
82.2087 1287.00
82.2739 1304.00
82.3391 1205.00
82.4043 1117.00
82.4695 1080.00
82.5347 988.00
82.5999 979.00
82.6651 981.00
82.7303 945.00
82.7955 1052.00
82.8607 1035.00
82.9259 1052.00
82.9911 1118.00
83.0563 1319.00
83.1215 1268.00
83.1867 1215.00
83.2519 1190.00
83.3171 1237.00
83.3823 1198.00
83.4475 1177.00
83.5127 1021.00
83.5779 1030.00
83.6431 941.00
83.7083 985.00
83.7735 881.00
83.8387 912.00
83.9039 863.00
83.9691 882.00
84.0343 943.00
84.0995 961.00
84.1647 1003.00
84.2299 1132.00
84.2951 1163.00
84.3603 1207.00
84.4255 1074.00
84.4907 1073.00
84.5559 1069.00
84.6211 1016.00
84.6863 993.00
84.7515 954.00
84.8167 888.00
84.8819 901.00
84.9471 903.00
85.0123 898.00
85.0775 1012.00
85.1427 1068.00
85.2079 1220.00
85.2731 1275.00
85.3383 1147.00
85.4035 1124.00
85.4687 1081.00
85.5339 1096.00
85.5991 985.00
85.6643 975.00
85.7295 1096.00
85.7946 1015.00
85.8598 981.00
85.925 1043.00
85.9903 987.00
86.0554 910.00
86.1206 920.00
86.1858 888.00
86.251 859.00
86.3162 924.00
86.3814 823.00
86.4466 880.00
86.5118 780.00
86.577 874.00
86.6422 868.00
86.7074 888.00
86.7726 880.00
86.8378 851.00
86.903 865.00
86.9682 906.00
87.0334 944.00
87.0986 1024.00
87.1638 943.00
87.229 954.00
87.2942 969.00
87.3594 911.00
87.4246 927.00
87.4898 932.00
87.555 905.00
87.6202 965.00
87.6854 1077.00
87.7506 963.00
87.8158 939.00
87.881 936.00
87.9462 897.00
88.0114 929.00
88.0766 953.00
88.1418 894.00
88.207 916.00
88.2722 798.00
88.3374 825.00
88.4026 999.00
88.4678 966.00
88.533 978.00
88.5982 905.00
88.6634 935.00
88.7286 909.00
88.7938 921.00
88.859 849.00
88.9242 909.00
88.9894 863.00
89.0546 810.00
89.1198 853.00
89.185 900.00
89.2502 1028.00
89.3154 931.00
89.3806 946.00
89.4458 944.00
89.511 887.00
89.5762 873.00
89.6414 995.00
89.7066 928.00
89.7718 986.00
89.837 960.00
89.9022 1094.00
89.9674 1017.00
90.0326 974.00
90.0978 973.00
90.163 954.00
90.2282 872.00
90.2934 916.00
90.3586 803.00
90.4238 861.00
90.489 875.00
90.5542 885.00
90.6193 823.00
90.6845 886.00
90.7497 886.00
90.8149 869.00
90.8801 891.00
90.9453 841.00
91.0105 929.00
91.0757 888.00
91.1409 857.00
91.2061 865.00
91.2713 841.00
91.3365 897.00
91.4017 863.00
91.4669 897.00
91.5321 893.00
91.5973 1067.00
91.6625 1281.00
91.7277 1312.00
91.7929 1228.00
91.8581 1082.00
91.9233 1110.00
91.9885 1063.00
92.0537 1062.00
92.1189 979.00
92.1841 871.00
92.2493 882.00
92.3145 897.00
92.3797 815.00
92.4449 878.00
92.5101 836.00
92.5753 861.00
92.6405 811.00
92.7057 804.00
92.7709 835.00
92.8361 785.00
92.9013 859.00
92.9665 809.00
93.0317 769.00
93.0969 845.00
93.1621 863.00
93.2273 870.00
93.2925 817.00
93.3577 842.00
93.4229 862.00
93.4881 836.00
93.5533 893.00
93.6185 901.00
93.6837 1007.00
93.7489 1114.00
93.8141 1226.00
93.8793 1139.00
93.9445 1191.00
94.0097 1141.00
94.0749 1273.00
94.1401 1164.00
94.2053 1209.00
94.2705 1068.00
94.3357 1001.00
94.4009 1030.00
94.4661 973.00
94.5313 1024.00
94.5965 981.00
94.6617 1017.00
94.7269 1272.00
94.7921 1386.00
94.8573 1417.00
94.9225 1322.00
94.9877 1285.00
95.0529 1297.00
95.1181 1526.00
95.1833 1431.00
95.2485 1274.00
95.3137 1145.00
95.3789 1090.00
95.444 1168.00
95.5092 1053.00
95.5744 932.00
95.6396 939.00
95.7048 876.00
95.77 868.00
95.8352 866.00
95.9004 822.00
95.9656 852.00
96.0308 1036.00
96.096 996.00
96.1612 1021.00
96.2264 987.00
96.2916 921.00
96.3568 952.00
96.422 934.00
96.4872 909.00
96.5524 908.00
96.6176 926.00
96.6828 892.00
96.748 839.00
96.8132 862.00
96.8784 887.00
96.9436 987.00
97.0088 1031.00
97.074 1185.00
97.1392 1248.00
97.2044 1147.00
97.2696 1222.00
97.3348 1253.00
97.4 1275.00
97.4652 1106.00
97.5304 1060.00
97.5956 1083.00
97.6608 992.00
97.726 960.00
97.7912 957.00
97.8564 898.00
97.9216 843.00
97.9868 915.00
98.052 914.00
98.1172 851.00
98.1824 844.00
98.2476 918.00
98.3128 904.00
98.378 928.00
98.4432 924.00
98.5084 892.00
98.5736 856.00
98.6388 877.00
98.704 901.00
98.7692 824.00
98.8344 860.00
98.8996 846.00
98.9648 827.00
99.03 918.00
99.0952 872.00
99.1604 927.00
99.2256 1108.00
99.2908 1134.00
99.356 1122.00
99.4212 1037.00
99.4864 991.00
99.5516 944.00
99.6168 954.00
99.682 1088.00
99.7472 965.00
99.8124 877.00
99.8776 871.00
99.9428 941.00
100.008 923.00
100.073 931.00
100.095 987.00