File: data/xrd_creation/results/PG_2638-1.xy
10.0094 2469.00
10.0746 2519.00
10.1398 2477.00
10.205 2438.00
10.2702 2477.00
10.3354 2449.00
10.4006 2507.00
10.4658 2451.00
10.531 2462.00
10.5962 2405.00
10.6614 2337.00
10.7266 2409.00
10.7918 2311.00
10.857 2443.00
10.9222 2267.00
10.9874 2323.00
11.0526 2318.00
11.1178 2374.00
11.183 2234.00
11.2482 2221.00
11.3134 2231.00
11.3786 2200.00
11.4438 2199.00
11.509 2182.00
11.5742 2123.00
11.6394 2168.00
11.7046 2166.00
11.7698 2139.00
11.835 2215.00
11.9002 2166.00
11.9654 2184.00
12.0306 2162.00
12.0958 2141.00
12.161 2132.00
12.2262 2100.00
12.2914 2107.00
12.3566 2213.00
12.4218 2182.00
12.487 2198.00
12.5522 2322.00
12.6174 2162.00
12.6826 2002.00
12.7478 1987.00
12.813 2023.00
12.8782 2065.00
12.9434 2013.00
13.0086 1973.00
13.0738 2001.00
13.139 2024.00
13.2042 2009.00
13.2694 2005.00
13.3346 1977.00
13.3998 2028.00
13.465 1989.00
13.5302 1929.00
13.5954 2034.00
13.6606 1982.00
13.7258 1939.00
13.791 1953.00
13.8562 1931.00
13.9214 1936.00
13.9865 1885.00
14.0517 1976.00
14.1169 1959.00
14.1821 1988.00
14.2473 1935.00
14.3125 1952.00
14.3777 1903.00
14.4429 1859.00
14.5081 1906.00
14.5733 1885.00
14.6385 1869.00
14.7037 1927.00
14.7689 1944.00
14.8341 1828.00
14.8993 1925.00
14.9645 1927.00
15.0297 1913.00
15.0949 1903.00
15.1601 1894.00
15.2253 1901.00
15.2905 1943.00
15.3557 1875.00
15.4209 1877.00
15.4861 1849.00
15.5513 1793.00
15.6165 1916.00
15.6817 1885.00
15.7469 1868.00
15.8121 1862.00
15.8773 1925.00
15.9425 1819.00
16.0077 1795.00
16.0729 1809.00
16.1381 1847.00
16.2033 1881.00
16.2685 1853.00
16.3337 1758.00
16.3989 1878.00
16.4641 1795.00
16.5293 1785.00
16.5945 1795.00
16.6597 1864.00
16.7249 1988.00
16.7901 1899.00
16.8553 1959.00
16.9205 1777.00
16.9857 1854.00
17.0509 1801.00
17.1161 1790.00
17.1813 1906.00
17.2465 1742.00
17.3117 1781.00
17.3769 1776.00
17.4421 1776.00
17.5073 1705.00
17.5725 1753.00
17.6377 1708.00
17.7029 1834.00
17.7681 1790.00
17.8333 1748.00
17.8985 1799.00
17.9637 1694.00
18.0289 1777.00
18.0941 1768.00
18.1593 1741.00
18.2245 1699.00
18.2897 1722.00
18.3549 1690.00
18.4201 1697.00
18.4853 1681.00
18.5505 1691.00
18.6157 1697.00
18.6809 1790.00
18.7461 1740.00
18.8112 1745.00
18.8764 1669.00
18.9416 1660.00
19.0068 1656.00
19.072 1776.00
19.1372 1638.00
19.2024 1670.00
19.2676 1689.00
19.3328 1646.00
19.398 1675.00
19.4632 1668.00
19.5284 1654.00
19.5936 1680.00
19.6588 1621.00
19.724 1675.00
19.7892 1559.00
19.8544 1561.00
19.9196 1616.00
19.9848 1629.00
20.05 1584.00
20.1152 1670.00
20.1804 1614.00
20.2456 1624.00
20.3108 1710.00
20.376 1630.00
20.4412 1657.00
20.5064 1652.00
20.5716 1574.00
20.6368 1584.00
20.702 1529.00
20.7672 1589.00
20.8324 1580.00
20.8976 1603.00
20.9628 1597.00
21.028 1622.00
21.0932 1576.00
21.1584 1602.00
21.2236 1589.00
21.2888 1561.00
21.354 1544.00
21.4192 1585.00
21.4844 1591.00
21.5496 1629.00
21.6148 1619.00
21.68 1652.00
21.7452 1568.00
21.8104 1601.00
21.8756 1625.00
21.9408 1631.00
22.006 1580.00
22.0712 1601.00
22.1364 1653.00
22.2016 1662.00
22.2668 1556.00
22.332 1516.00
22.3972 1597.00
22.4624 1540.00
22.5276 1630.00
22.5928 1598.00
22.658 1543.00
22.7232 1708.00
22.7884 1795.00
22.8536 1939.00
22.9188 1863.00
22.984 1695.00
23.0492 1504.00
23.1144 1551.00
23.1796 1606.00
23.2448 1677.00
23.31 1704.00
23.3752 1824.00
23.4404 1746.00
23.5056 1683.00
23.5708 1648.00
23.6359 1550.00
23.7011 1638.00
23.7663 1672.00
23.8315 1780.00
23.8967 1774.00
23.9619 1838.00
24.0271 1925.00
24.0923 2008.00
24.1575 2274.00
24.2227 2940.00
24.2879 4060.00
24.3531 4680.00
24.4183 3295.00
24.4835 2139.00
24.5487 1724.00
24.6139 1578.00
24.6791 1617.00
24.7443 1745.00
24.8095 1820.00
24.8747 2011.00
24.9399 2091.00
25.0051 1788.00
25.0703 1714.00
25.1355 1727.00
25.2007 1658.00
25.2659 1610.00
25.3311 1718.00
25.3963 1699.00
25.4615 1615.00
25.5267 1716.00
25.5919 1601.00
25.6571 1539.00
25.7223 1575.00
25.7875 1621.00
25.8527 1557.00
25.9179 1611.00
25.9831 1580.00
26.0483 1571.00
26.1135 1488.00
26.1787 1519.00
26.2439 1562.00
26.3091 1480.00
26.3743 1491.00
26.4395 1534.00
26.5047 1542.00
26.5699 1590.00
26.6351 1520.00
26.7003 1561.00
26.7655 1555.00
26.8307 1533.00
26.8959 1514.00
26.9611 1461.00
27.0263 1504.00
27.0915 1506.00
27.1567 1634.00
27.2219 1553.00
27.2871 1504.00
27.3523 1442.00
27.4175 1486.00
27.4827 1502.00
27.5479 1489.00
27.6131 1553.00
27.6783 1516.00
27.7435 1425.00
27.8087 1474.00
27.8739 1469.00
27.9391 1442.00
28.0043 1457.00
28.0695 1503.00
28.1347 1497.00
28.1999 1516.00
28.2651 1449.00
28.3303 1472.00
28.3955 1524.00
28.4606 1575.00
28.5258 1750.00
28.591 1878.00
28.6562 1734.00
28.7214 1650.00
28.7866 1488.00
28.8518 1455.00
28.917 1501.00
28.9822 1491.00
29.0474 1527.00
29.1126 1586.00
29.1778 1608.00
29.243 1616.00
29.3082 1552.00
29.3734 1527.00
29.4386 1558.00
29.5038 1578.00
29.569 1601.00
29.6342 1660.00
29.6994 1606.00
29.7646 1720.00
29.8298 1871.00
29.895 2237.00
29.9602 3548.00
30.0254 6412.00
30.0906 11594.00
30.1558 12782.00
30.221 7508.00
30.2862 2933.00
30.3514 1933.00
30.4166 1767.00
30.4818 1617.00
30.547 1647.00
30.6122 1485.00
30.6774 1520.00
30.7426 1484.00
30.8078 1510.00
30.873 1441.00
30.9382 1451.00
31.0034 1532.00
31.0686 1609.00
31.1338 1806.00
31.199 2262.00
31.2642 2639.00
31.3294 2209.00
31.3946 1776.00
31.4598 1475.00
31.525 1419.00
31.5902 1459.00
31.6554 1509.00
31.7206 1457.00
31.7858 1481.00
31.851 1389.00
31.9162 1448.00
31.9814 1491.00
32.0466 1418.00
32.1118 1489.00
32.177 1506.00
32.2422 1454.00
32.3074 1492.00
32.3726 1567.00
32.4378 1511.00
32.503 1473.00
32.5682 1459.00
32.6334 1456.00
32.6986 1487.00
32.7638 1486.00
32.829 1537.00
32.8942 1420.00
32.9594 1648.00
33.0246 1815.00
33.0898 2574.00
33.1549 3593.00
33.2201 3638.00
33.2853 2598.00
33.3505 1709.00
33.4157 1551.00
33.4809 1442.00
33.5461 1456.00
33.6113 1500.00
33.6765 1405.00
33.7417 1438.00
33.8069 1443.00
33.8721 1352.00
33.9373 1348.00
34.0025 1432.00
34.0677 1371.00
34.1329 1420.00
34.1981 1406.00
34.2633 1390.00
34.3285 1442.00
34.3937 1437.00
34.4589 1384.00
34.5241 1363.00
34.5893 1342.00
34.6545 1311.00
34.7197 1378.00
34.7849 1386.00
34.8501 1399.00
34.9153 1417.00
34.9805 1386.00
35.0457 1384.00
35.1109 1394.00
35.1761 1420.00
35.2413 1453.00
35.3065 1484.00
35.3717 1720.00
35.4369 2117.00
35.5021 2931.00
35.5673 2731.00
35.6325 2213.00
35.6977 1626.00
35.7629 1453.00
35.8281 1625.00
35.8933 1794.00
35.9585 2389.00
36.0237 3033.00
36.0889 2587.00
36.1541 1981.00
36.2193 1524.00
36.2845 1378.00
36.3497 1420.00
36.4149 1395.00
36.4801 1473.00
36.5453 1387.00
36.6105 1343.00
36.6757 1487.00
36.7409 1472.00
36.8061 1516.00
36.8713 1535.00
36.9365 1368.00
37.0017 1381.00
37.0669 1342.00
37.1321 1387.00
37.1973 1343.00
37.2625 1510.00
37.3277 1451.00
37.3929 1425.00
37.4581 1482.00
37.5233 1775.00
37.5885 2130.00
37.6537 1944.00
37.7189 1810.00
37.7841 1489.00
37.8493 1433.00
37.9145 1266.00
37.9796 1334.00
38.0448 1299.00
38.11 1405.00
38.1752 1329.00
38.2404 1472.00
38.3056 1447.00
38.3708 1592.00
38.436 1702.00
38.5012 1683.00
38.5664 1500.00
38.6316 1385.00
38.6968 1320.00
38.762 1390.00
38.8272 1389.00
38.8924 1379.00
38.9576 1329.00
39.0228 1284.00
39.088 1345.00
39.1532 1385.00
39.2184 1323.00
39.2836 1344.00
39.3488 1366.00
39.414 1300.00
39.4792 1309.00
39.5444 1364.00
39.6096 1323.00
39.6748 1259.00
39.74 1351.00
39.8052 1382.00
39.8704 1283.00
39.9356 1221.00
40.0008 1281.00
40.066 1279.00
40.1312 1399.00
40.1964 1445.00
40.2616 1601.00
40.3268 1816.00
40.392 1632.00
40.4572 1543.00
40.5224 1394.00
40.5876 1407.00
40.6528 1534.00
40.718 1824.00
40.7832 2129.00
40.8484 1827.00
40.9136 1712.00
40.9788 1386.00
41.044 1385.00
41.1092 1391.00
41.1744 1406.00
41.2396 1323.00
41.3048 1306.00
41.37 1320.00
41.4352 1291.00
41.5004 1318.00
41.5656 1311.00
41.6308 1270.00
41.696 1332.00
41.7612 1323.00
41.8264 1267.00
41.8916 1288.00
41.9568 1352.00
42.022 1359.00
42.0872 1275.00
42.1524 1326.00
42.2176 1300.00
42.2828 1292.00
42.348 1323.00
42.4132 1321.00
42.4784 1303.00
42.5436 1298.00
42.6088 1256.00
42.6739 1353.00
42.7392 1339.00
42.8043 1396.00
42.8695 1357.00
42.9347 1349.00
42.9999 1388.00
43.0651 1312.00
43.1303 1358.00
43.1955 1327.00
43.2607 1498.00
43.3259 1738.00
43.3911 2241.00
43.4563 2009.00
43.5215 1889.00
43.5867 1515.00
43.6519 1438.00
43.7171 1418.00
43.7823 1470.00
43.8475 1398.00
43.9127 1377.00
43.9779 1324.00
44.0431 1390.00
44.1083 1424.00
44.1735 1465.00
44.2387 1423.00
44.3039 1445.00
44.3691 1391.00
44.4343 1303.00
44.4995 1298.00
44.5647 1415.00
44.6299 1311.00
44.6951 1317.00
44.7603 1317.00
44.8255 1384.00
44.8907 1291.00
44.9559 1259.00
45.0211 1355.00
45.0863 1263.00
45.1515 1250.00
45.2167 1329.00
45.2819 1395.00
45.3471 1574.00
45.4123 1577.00
45.4775 1551.00
45.5427 1338.00
45.6079 1395.00
45.6731 1326.00
45.7383 1314.00
45.8035 1344.00
45.8687 1288.00
45.9339 1339.00
45.9991 1237.00
46.0643 1311.00
46.1295 1237.00
46.1947 1287.00
46.2599 1293.00
46.3251 1376.00
46.3903 1307.00
46.4555 1306.00
46.5207 1318.00
46.5859 1353.00
46.6511 1371.00
46.7163 1379.00
46.7815 1297.00
46.8467 1310.00
46.9119 1356.00
46.9771 1448.00
47.0423 1382.00
47.1075 1271.00
47.1727 1332.00
47.2379 1312.00
47.3031 1297.00
47.3683 1284.00
47.4335 1312.00
47.4986 1345.00
47.5639 1431.00
47.629 1395.00
47.6942 1540.00
47.7594 1575.00
47.8246 2013.00
47.8898 2533.00
47.955 2096.00
48.0202 1932.00
48.0854 1596.00
48.1506 1427.00
48.2158 1384.00
48.281 1296.00
48.3462 1265.00
48.4114 1276.00
48.4766 1364.00
48.5418 1285.00
48.607 1333.00
48.6722 1317.00
48.7374 1356.00
48.8026 1344.00
48.8678 1393.00
48.933 1379.00
48.9982 1290.00
49.0634 1368.00
49.1286 1296.00
49.1938 1384.00
49.259 1339.00
49.3242 1407.00
49.3894 1523.00
49.4546 1860.00
49.5198 2565.00
49.585 2288.00
49.6502 2021.00
49.7154 1717.00
49.7806 1476.00
49.8458 1342.00
49.911 1414.00
49.9762 1428.00
50.0414 1367.00
50.1066 1334.00
50.1718 1370.00
50.237 1304.00
50.3022 1285.00
50.3674 1332.00
50.4326 1502.00
50.4978 1535.00
50.563 1435.00
50.6282 1500.00
50.6934 1369.00
50.7586 1377.00
50.8238 1354.00
50.889 1373.00
50.9542 1459.00
51.0194 1409.00
51.0846 1437.00
51.1498 1501.00
51.215 1647.00
51.2802 2067.00
51.3454 2788.00
51.4106 2782.00
51.4758 2260.00
51.541 2022.00
51.6062 1572.00
51.6714 1429.00
51.7366 1435.00
51.8018 1336.00
51.867 1305.00
51.9322 1369.00
51.9974 1317.00
52.0626 1382.00
52.1278 1354.00
52.193 1433.00
52.2582 1419.00
52.3233 1475.00
52.3886 1643.00
52.4537 2274.00
52.5189 3504.00
52.5841 3138.00
52.6493 2690.00
52.7145 2431.00
52.7797 2337.00
52.8449 3130.00
52.9101 4235.00
52.9753 2979.00
53.0405 2967.00
53.1057 2183.00
53.1709 1551.00
53.2361 1421.00
53.3013 1391.00
53.3665 1380.00
53.4317 1429.00
53.4969 1359.00
53.5621 1401.00
53.6273 1397.00
53.6925 1384.00
53.7577 1358.00
53.8229 1341.00
53.8881 1380.00
53.9533 1352.00
54.0185 1372.00
54.0837 1338.00
54.1489 1371.00
54.2141 1430.00
54.2793 1354.00
54.3445 1331.00
54.4097 1454.00
54.4749 1389.00
54.5401 1576.00
54.6053 1678.00
54.6705 1637.00
54.7357 1643.00
54.8009 1546.00
54.8661 1456.00
54.9313 1442.00
54.9965 1447.00
55.0617 1457.00
55.1269 1454.00
55.1921 1476.00
55.2573 1749.00
55.3225 2129.00
55.3877 2260.00
55.4529 1869.00
55.5181 1905.00
55.5833 1670.00
55.6485 1443.00
55.7137 1385.00
55.7789 1404.00
55.8441 1356.00
55.9093 1349.00
55.9745 1310.00
56.0397 1332.00
56.1049 1281.00
56.1701 1335.00
56.2353 1266.00
56.3005 1348.00
56.3657 1367.00
56.4309 1271.00
56.4961 1347.00
56.5613 1384.00
56.6265 1388.00
56.6917 1373.00
56.7569 1358.00
56.8221 1316.00
56.8873 1302.00
56.9525 1272.00
57.0177 1323.00
57.0829 1427.00
57.148 1396.00
57.2132 1461.00
57.2784 1389.00
57.3436 1395.00
57.4088 1342.00
57.474 1300.00
57.5392 1316.00
57.6044 1334.00
57.6696 1365.00
57.7348 1400.00
57.8 1344.00
57.8652 1414.00
57.9304 1428.00
57.9956 1322.00
58.0608 1288.00
58.126 1361.00
58.1912 1361.00
58.2564 1316.00
58.3216 1461.00
58.3868 1292.00
58.452 1385.00
58.5172 1382.00
58.5824 1405.00
58.6476 1356.00
58.7128 1372.00
58.778 1433.00
58.8432 1297.00
58.9084 1340.00
58.9736 1370.00
59.0388 1404.00
59.104 1326.00
59.1692 1378.00
59.2344 1351.00
59.2996 1300.00
59.3648 1348.00
59.43 1372.00
59.4952 1343.00
59.5604 1364.00
59.6256 1374.00
59.6908 1336.00
59.756 1338.00
59.8212 1440.00
59.8864 1393.00
59.9516 1435.00
60.0168 1516.00
60.082 1723.00
60.1472 2238.00
60.2124 3226.00
60.2776 2696.00
60.3428 2264.00
60.408 2259.00
60.4732 1706.00
60.5384 1456.00
60.6036 1400.00
60.6688 1396.00
60.734 1469.00
60.7992 1510.00
60.8644 1426.00
60.9296 1535.00
60.9948 1365.00
61.06 1386.00
61.1252 1404.00
61.1904 1312.00
61.2556 1349.00
61.3208 1368.00
61.386 1348.00
61.4512 1335.00
61.5164 1367.00
61.5816 1376.00
61.6468 1333.00
61.712 1348.00
61.7772 1282.00
61.8424 1428.00
61.9076 1376.00
61.9727 1329.00
62.0379 1346.00
62.1031 1452.00
62.1683 1612.00
62.2335 1964.00
62.2987 1925.00
62.3639 1731.00
62.4291 1765.00
62.4943 1617.00
62.5595 1497.00
62.6247 1355.00
62.6899 1453.00
62.7551 1411.00
62.8203 1451.00
62.8855 1619.00
62.9507 2199.00
63.0159 2864.00
63.0811 2119.00
63.1463 2162.00
63.2115 1945.00
63.2767 1584.00
63.3419 1442.00
63.4071 1508.00
63.4723 1428.00
63.5375 1476.00
63.6027 1544.00
63.6679 1589.00
63.7331 2005.00
63.7983 2891.00
63.8635 3868.00
63.9287 2716.00
63.9939 2499.00
64.0591 2606.00
64.1243 1807.00
64.1895 1568.00
64.2547 1682.00
64.3199 1516.00
64.3851 1505.00
64.4503 1432.00
64.5155 1309.00
64.5807 1355.00
64.6459 1389.00
64.7111 1350.00
64.7763 1348.00
64.8415 1423.00
64.9067 1356.00
64.9719 1386.00
65.0371 1362.00
65.1023 1400.00
65.1675 1316.00
65.2327 1300.00
65.2979 1400.00
65.3631 1286.00
65.4283 1383.00
65.4935 1371.00
65.5587 1371.00
65.6239 1343.00
65.6891 1343.00
65.7543 1370.00
65.8195 1419.00
65.8847 1607.00
65.9499 1780.00
66.0151 1688.00
66.0803 1620.00
66.1455 1525.00
66.2107 1448.00
66.2759 1445.00
66.3411 1408.00
66.4063 1398.00
66.4715 1333.00
66.5367 1393.00
66.6019 1405.00
66.6671 1414.00
66.7322 1381.00
66.7974 1432.00
66.8626 1458.00
66.9278 1448.00
66.993 1424.00
67.0582 1420.00
67.1234 1345.00
67.1886 1395.00
67.2538 1411.00
67.319 1366.00
67.3842 1347.00
67.4494 1445.00
67.5146 1448.00
67.5798 1649.00
67.645 1942.00
67.7102 2027.00
67.7754 1797.00
67.8406 1814.00
67.9058 1686.00
67.971 1529.00
68.0362 1360.00
68.1014 1429.00
68.1666 1335.00
68.2318 1301.00
68.297 1342.00
68.3622 1340.00
68.4274 1331.00
68.4926 1381.00
68.5578 1350.00
68.623 1261.00
68.6882 1329.00
68.7534 1367.00
68.8186 1365.00
68.8838 1387.00
68.949 1359.00
69.0142 1378.00
69.0794 1359.00
69.1446 1350.00
69.2098 1395.00
69.275 1404.00
69.3402 1404.00
69.4054 1459.00
69.4706 1495.00
69.5358 1459.00
69.601 1429.00
69.6662 1452.00
69.7314 1453.00
69.7966 1347.00
69.8618 1391.00
69.927 1368.00
69.9922 1336.00
70.0574 1279.00
70.1226 1304.00
70.1878 1246.00
70.253 1336.00
70.3182 1344.00
70.3834 1340.00
70.4486 1334.00
70.5138 1316.00
70.579 1356.00
70.6442 1390.00
70.7094 1302.00
70.7746 1346.00
70.8398 1354.00
70.905 1376.00
70.9702 1306.00
71.0354 1314.00
71.1006 1326.00
71.1658 1343.00
71.231 1402.00
71.2962 1372.00
71.3614 1392.00
71.4266 1290.00
71.4918 1441.00
71.5569 1635.00
71.6221 1501.00
71.6873 1415.00
71.7525 1414.00
71.8177 1493.00
71.8829 1345.00
71.9481 1299.00
72.0133 1393.00
72.0785 1335.00
72.1437 1358.00
72.2089 1293.00
72.2741 1334.00
72.3393 1322.00
72.4045 1388.00
72.4697 1376.00
72.5349 1392.00
72.6001 1254.00
72.6653 1402.00
72.7305 1336.00
72.7957 1339.00
72.8609 1374.00
72.9261 1361.00
72.9913 1373.00
73.0565 1290.00
73.1217 1379.00
73.1869 1420.00
73.2521 1408.00
73.3173 1313.00
73.3825 1402.00
73.4477 1391.00
73.5129 1329.00
73.5781 1293.00
73.6433 1391.00
73.7085 1327.00
73.7737 1344.00
73.8389 1290.00
73.9041 1373.00
73.9693 1314.00
74.0345 1304.00
74.0997 1361.00
74.1649 1382.00
74.2301 1335.00
74.2953 1451.00
74.3605 1489.00
74.4257 1465.00
74.4909 1367.00
74.5561 1495.00
74.6213 1316.00
74.6865 1414.00
74.7517 1540.00
74.8169 1526.00
74.8821 1495.00
74.9473 1424.00
75.0125 1416.00
75.0777 1411.00
75.1429 1337.00
75.2081 1341.00
75.2733 1269.00
75.3385 1325.00
75.4037 1367.00
75.4689 1359.00
75.5341 1374.00
75.5993 1313.00
75.6645 1412.00
75.7297 1370.00
75.7949 1401.00
75.8601 1417.00
75.9253 1491.00
75.9905 1472.00
76.0557 1360.00
76.1209 1453.00
76.186 1386.00
76.2513 1518.00
76.3165 1563.00
76.3816 1562.00
76.4468 1441.00
76.512 1414.00
76.5772 1533.00
76.6424 1456.00
76.7076 1325.00
76.7728 1335.00
76.838 1333.00
76.9032 1351.00
76.9684 1331.00
77.0336 1377.00
77.0988 1339.00
77.164 1384.00
77.2292 1490.00
77.2944 1434.00
77.3596 1374.00
77.4248 1468.00
77.49 1413.00
77.5552 1489.00
77.6204 1763.00
77.6856 1703.00
77.7508 1631.00
77.816 1607.00
77.8812 1628.00
77.9464 1513.00
78.0116 1396.00
78.0768 1464.00
78.142 1306.00
78.2072 1409.00
78.2724 1434.00
78.3376 1372.00
78.4028 1342.00
78.468 1316.00
78.5332 1355.00
78.5984 1397.00
78.6636 1381.00
78.7288 1338.00
78.794 1356.00
78.8592 1325.00
78.9244 1387.00
78.9896 1339.00
79.0548 1377.00
79.12 1366.00
79.1852 1401.00
79.2504 1369.00
79.3156 1386.00
79.3808 1335.00
79.446 1395.00
79.5112 1474.00
79.5764 1421.00
79.6416 1400.00
79.7068 1603.00
79.772 1793.00
79.8372 2033.00
79.9024 2325.00
79.9676 2167.00
80.0328 1824.00
80.098 1843.00
80.1632 1837.00
80.2284 1736.00
80.2936 1593.00
80.3588 1501.00
80.424 1384.00
80.4892 1385.00
80.5544 1435.00
80.6196 1390.00
80.6848 1398.00
80.75 1352.00
80.8152 1332.00
80.8804 1366.00
80.9456 1318.00
81.0108 1350.00
81.076 1274.00
81.1412 1288.00
81.2063 1375.00
81.2715 1467.00
81.3367 1409.00
81.4019 1332.00
81.4671 1343.00
81.5323 1353.00
81.5975 1342.00
81.6627 1394.00
81.7279 1313.00
81.7931 1429.00
81.8583 1487.00
81.9235 1475.00
81.9887 1421.00
82.0539 1417.00
82.1191 1383.00
82.1843 1345.00
82.2495 1358.00
82.3147 1313.00
82.3799 1323.00
82.4451 1347.00
82.5103 1306.00
82.5755 1391.00
82.6407 1327.00
82.7059 1410.00
82.7711 1413.00
82.8363 1368.00
82.9015 1326.00
82.9667 1393.00
83.0319 1512.00
83.0971 1465.00
83.1623 1531.00
83.2275 1386.00
83.2927 1377.00
83.3579 1506.00
83.4231 1492.00
83.4883 1426.00
83.5535 1405.00
83.6187 1452.00
83.6839 1403.00
83.7491 1414.00
83.8143 1388.00
83.8795 1378.00
83.9447 1401.00
84.0099 1438.00
84.0751 1367.00
84.1403 1372.00
84.2055 1366.00
84.2707 1364.00
84.3359 1352.00
84.4011 1454.00
84.4663 1348.00
84.5315 1382.00
84.5967 1392.00
84.6619 1368.00
84.7271 1485.00
84.7923 1485.00
84.8575 1386.00
84.9227 1563.00
84.9879 1901.00
85.0531 1760.00
85.1183 1589.00
85.1835 1435.00
85.2487 1624.00
85.3139 1545.00
85.3791 1403.00
85.4443 1472.00
85.5095 1326.00
85.5747 1403.00
85.6399 1368.00
85.7051 1355.00
85.7703 1402.00
85.8354 1334.00
85.9006 1425.00
85.9659 1335.00
86.031 1363.00
86.0962 1378.00
86.1614 1331.00
86.2266 1380.00
86.2918 1371.00
86.357 1335.00
86.4222 1322.00
86.4874 1369.00
86.5526 1482.00
86.6178 1581.00
86.683 1711.00
86.7482 1790.00
86.8134 1532.00
86.8786 1638.00
86.9438 1773.00
87.009 1750.00
87.0742 1535.00
87.1394 1451.00
87.2046 1468.00
87.2698 1447.00
87.335 1447.00
87.4002 1434.00
87.4654 1368.00
87.5306 1404.00
87.5958 1426.00
87.661 1383.00
87.7262 1370.00
87.7914 1378.00
87.8566 1430.00
87.9218 1438.00
87.987 1520.00
88.0522 1595.00
88.1174 1699.00
88.1826 1870.00
88.2478 2123.00
88.313 1619.00
88.3782 1567.00
88.4434 1656.00
88.5086 1672.00
88.5738 1613.00
88.639 1483.00
88.7042 1377.00
88.7694 1389.00
88.8346 1449.00
88.8998 1462.00
88.965 1411.00
89.0302 1337.00
89.0954 1424.00
89.1606 1464.00
89.2258 1548.00
89.291 1619.00
89.3562 1455.00
89.4214 1456.00
89.4866 1567.00
89.5518 1837.00
89.617 1638.00
89.6822 1497.00
89.7474 1443.00
89.8126 1495.00
89.8778 1459.00
89.943 1354.00
90.0082 1448.00
90.0734 1301.00
90.1386 1434.00
90.2038 1360.00
90.269 1501.00
90.3342 1600.00
90.3994 1665.00
90.4646 1470.00
90.5298 1472.00
90.595 1688.00
90.6601 1710.00
90.7253 1616.00
90.7905 1462.00
90.8557 1546.00
90.9209 1506.00
90.9861 1555.00
91.0513 1432.00
91.1165 1418.00
91.1817 1528.00
91.2469 1466.00
91.3121 1377.00
91.3773 1407.00
91.4425 1419.00
91.5077 1469.00
91.5729 1423.00
91.6381 1396.00
91.7033 1371.00
91.7685 1345.00
91.8337 1329.00
91.8989 1373.00
91.9641 1384.00
92.0293 1372.00
92.0945 1393.00
92.1597 1373.00
92.2249 1338.00
92.2901 1397.00
92.3553 1448.00
92.4205 1353.00
92.4857 1419.00
92.5509 1391.00
92.6161 1409.00
92.6813 1465.00
92.7465 1374.00
92.8117 1339.00
92.8769 1441.00
92.9421 1426.00
93.0073 1436.00
93.0725 1384.00
93.1377 1303.00
93.2029 1437.00
93.2681 1369.00
93.3333 1423.00
93.3985 1439.00
93.4637 1393.00
93.5289 1391.00
93.5941 1394.00
93.6593 1420.00
93.7245 1465.00
93.7897 1389.00
93.8549 1354.00
93.9201 1447.00
93.9853 1489.00
94.0505 1424.00
94.1157 1533.00
94.1809 1436.00
94.2461 1521.00
94.3113 1414.00
94.3765 1399.00
94.4417 1433.00
94.5069 1504.00
94.5721 1514.00
94.6373 1491.00
94.7025 1386.00
94.7677 1530.00
94.8329 1605.00
94.8981 1600.00
94.9633 1480.00
95.0285 1436.00
95.0937 1422.00
95.1589 1542.00
95.2241 1532.00
95.2893 1420.00
95.3545 1403.00
95.4197 1418.00
95.4848 1450.00
95.55 1334.00
95.6153 1389.00
95.6804 1426.00
95.7456 1414.00
95.8108 1469.00
95.876 1379.00
95.9412 1432.00
96.0064 1444.00
96.0716 1400.00
96.1368 1456.00
96.202 1699.00
96.2672 1832.00
96.3324 1868.00
96.3976 1630.00
96.4628 1595.00
96.528 1589.00
96.5932 1625.00
96.6584 1660.00
96.7236 1502.00
96.7888 1405.00
96.854 1416.00
96.9192 1344.00
96.9844 1472.00
97.0496 1399.00
97.1148 1447.00
97.18 1393.00
97.2452 1430.00
97.3104 1562.00
97.3756 1648.00
97.4408 1712.00
97.506 1706.00
97.5712 1553.00
97.6364 1564.00
97.7016 1579.00
97.7668 1569.00
97.832 1643.00
97.8972 1516.00
97.9624 1426.00
98.0276 1504.00
98.0928 1468.00
98.158 1405.00
98.2232 1371.00
98.2884 1446.00
98.3536 1431.00
98.4188 1425.00
98.484 1501.00
98.5492 1684.00
98.6144 1512.00
98.6796 1508.00
98.7448 1479.00
98.81 1467.00
98.8752 1541.00
98.9404 1557.00
99.0056 1387.00
99.0708 1514.00
99.136 1381.00
99.2012 1466.00
99.2664 1399.00
99.3316 1351.00
99.3968 1487.00
99.462 1416.00
99.5272 1398.00
99.5924 1342.00
99.6576 1430.00
99.7228 1374.00
99.788 1423.00
99.8532 1312.00
99.9184 1427.00
99.9836 1403.00
99.9944 1439.00