File: data/xrd_creation/results/PG_2443-1.xy
9.903433 3294.00
9.968632 3356.00
10.0338 3320.00
10.099 3335.00
10.1642 3267.00
10.2294 3276.00
10.2946 3304.00
10.3598 3126.00
10.425 3210.00
10.4902 3239.00
10.5554 3098.00
10.6206 3098.00
10.6858 3256.00
10.751 3117.00
10.8162 3106.00
10.8814 3107.00
10.9466 3102.00
11.0118 3054.00
11.077 2838.00
11.1422 3000.00
11.2074 2893.00
11.2726 3074.00
11.3378 2970.00
11.403 2927.00
11.4682 2969.00
11.5334 3008.00
11.5986 2919.00
11.6638 2884.00
11.729 2903.00
11.7942 2958.00
11.8594 2926.00
11.9246 2835.00
11.9898 2800.00
12.055 2881.00
12.1202 2805.00
12.1854 2783.00
12.2506 2699.00
12.3158 2738.00
12.381 2738.00
12.4462 2756.00
12.5114 2751.00
12.5766 2776.00
12.6418 2679.00
12.707 2673.00
12.7722 2668.00
12.8374 2729.00
12.9026 2655.00
12.9678 2685.00
13.033 2799.00
13.0982 2631.00
13.1634 2661.00
13.2286 2632.00
13.2938 2655.00
13.359 2515.00
13.4242 2682.00
13.4894 2605.00
13.5546 2656.00
13.6198 2677.00
13.685 2614.00
13.7502 2651.00
13.8154 2615.00
13.8805 2608.00
13.9457 2633.00
14.0109 2589.00
14.0761 2619.00
14.1413 2555.00
14.2065 2596.00
14.2717 2516.00
14.3369 2622.00
14.4021 2535.00
14.4673 2629.00
14.5325 2518.00
14.5977 2642.00
14.6629 2508.00
14.7281 2561.00
14.7933 2543.00
14.8585 2535.00
14.9237 2521.00
14.9889 2548.00
15.0541 2580.00
15.1193 2501.00
15.1845 2550.00
15.2497 2652.00
15.3149 2451.00
15.3801 2503.00
15.4453 2611.00
15.5105 2551.00
15.5757 2447.00
15.6409 2509.00
15.7061 2522.00
15.7713 2577.00
15.8365 2564.00
15.9017 2561.00
15.9669 2508.00
16.0321 2548.00
16.0973 2463.00
16.1625 2538.00
16.2277 2456.00
16.2929 2492.00
16.3581 2604.00
16.4233 2534.00
16.4885 2566.00
16.5537 2537.00
16.6189 2561.00
16.6841 2654.00
16.7493 2517.00
16.8145 2514.00
16.8797 2534.00
16.9449 2582.00
17.0101 2666.00
17.0753 2653.00
17.1405 2564.00
17.2057 2632.00
17.2709 2680.00
17.3361 2573.00
17.4013 2627.00
17.4665 2720.00
17.5317 2727.00
17.5969 2670.00
17.6621 2657.00
17.7273 2680.00
17.7925 2643.00
17.8577 2693.00
17.9229 2597.00
17.9881 2701.00
18.0533 2681.00
18.1185 2623.00
18.1837 2661.00
18.2489 2728.00
18.3141 2778.00
18.3793 2712.00
18.4445 2683.00
18.5097 2783.00
18.5749 2837.00
18.6401 2873.00
18.7052 2822.00
18.7704 2852.00
18.8356 2874.00
18.9008 2868.00
18.966 2834.00
19.0312 2870.00
19.0964 2944.00
19.1616 2915.00
19.2268 3033.00
19.292 2960.00
19.3572 2930.00
19.4224 2968.00
19.4876 3137.00
19.5528 2985.00
19.618 2982.00
19.6832 3051.00
19.7484 3118.00
19.8136 2998.00
19.8788 3067.00
19.944 3150.00
20.0092 3065.00
20.0744 3136.00
20.1396 3189.00
20.2048 3175.00
20.27 3117.00
20.3352 3215.00
20.4004 3198.00
20.4656 3235.00
20.5308 3319.00
20.596 3179.00
20.6612 3254.00
20.7264 3422.00
20.7916 3312.00
20.8568 3290.00
20.922 3475.00
20.9872 3427.00
21.0524 3365.00
21.1176 3510.00
21.1828 3461.00
21.248 3514.00
21.3132 3685.00
21.3784 3821.00
21.4436 3793.00
21.5088 3921.00
21.574 3984.00
21.6392 3979.00
21.7044 3928.00
21.7696 3918.00
21.8348 3868.00
21.9 3683.00
21.9652 3627.00
22.0304 3508.00
22.0956 3532.00
22.1608 3591.00
22.226 3471.00
22.2912 3344.00
22.3564 3378.00
22.4216 3502.00
22.4868 3493.00
22.552 3421.00
22.6172 3454.00
22.6824 3345.00
22.7476 3460.00
22.8128 3416.00
22.878 3461.00
22.9432 3268.00
23.0084 3355.00
23.0736 3393.00
23.1388 3461.00
23.204 3420.00
23.2692 3420.00
23.3344 3590.00
23.3996 3473.00
23.4647 3558.00
23.5299 3467.00
23.5951 3563.00
23.6603 3573.00
23.7255 3390.00
23.7907 3470.00
23.8559 3470.00
23.9211 3532.00
23.9863 3439.00
24.0515 3448.00
24.1167 3440.00
24.1819 3321.00
24.2471 3312.00
24.3123 3319.00
24.3775 3332.00
24.4427 3275.00
24.5079 3302.00
24.5731 3256.00
24.6383 3349.00
24.7035 3256.00
24.7687 3317.00
24.8339 3238.00
24.8991 3347.00
24.9643 3395.00
25.0295 3253.00
25.0947 3246.00
25.1599 3296.00
25.2251 3320.00
25.2903 3193.00
25.3555 3272.00
25.4207 3261.00
25.4859 3266.00
25.5511 3076.00
25.6163 3246.00
25.6815 3260.00
25.7467 3184.00
25.8119 3033.00
25.8771 3108.00
25.9423 3164.00
26.0075 3174.00
26.0727 3131.00
26.1379 3131.00
26.2031 3113.00
26.2683 3049.00
26.3335 3044.00
26.3987 3081.00
26.4639 3021.00
26.5291 2938.00
26.5943 3052.00
26.6595 3055.00
26.7247 2893.00
26.7899 2987.00
26.8551 3018.00
26.9203 2909.00
26.9855 2955.00
27.0507 2936.00
27.1159 3007.00
27.1811 2936.00
27.2463 2811.00
27.3115 2857.00
27.3767 2796.00
27.4419 2867.00
27.5071 2841.00
27.5723 2838.00
27.6375 2781.00
27.7027 2818.00
27.7679 2740.00
27.8331 2752.00
27.8983 2684.00
27.9635 2761.00
28.0287 2701.00
28.0939 2733.00
28.1591 2620.00
28.2243 2642.00
28.2894 2639.00
28.3546 2641.00
28.4198 2585.00
28.485 2594.00
28.5502 2567.00
28.6154 2661.00
28.6806 2595.00
28.7458 2559.00
28.811 2498.00
28.8762 2539.00
28.9414 2527.00
29.0066 2574.00
29.0718 2528.00
29.137 2514.00
29.2022 2448.00
29.2674 2478.00
29.3326 2558.00
29.3978 2400.00
29.463 2511.00
29.5282 2463.00
29.5934 2511.00
29.6586 2449.00
29.7238 2426.00
29.789 2593.00
29.8542 2544.00
29.9194 2546.00
29.9846 2525.00
30.0498 2591.00
30.115 2511.00
30.1802 2610.00
30.2454 2608.00
30.3106 2613.00
30.3758 2685.00
30.441 2733.00
30.5062 2691.00
30.5714 2790.00
30.6366 2839.00
30.7018 2709.00
30.767 2683.00
30.8322 2619.00
30.8974 2623.00
30.9626 2615.00
31.0278 2468.00
31.093 2382.00
31.1582 2519.00
31.2234 2321.00
31.2886 2508.00
31.3538 2368.00
31.419 2430.00
31.4842 2381.00
31.5494 2396.00
31.6146 2503.00
31.6798 2493.00
31.745 2473.00
31.8102 2530.00
31.8754 2535.00
31.9406 2537.00
32.0058 2582.00
32.071 2474.00
32.1362 2421.00
32.2014 2407.00
32.2666 2356.00
32.3318 2374.00
32.397 2279.00
32.4622 2205.00
32.5274 2174.00
32.5926 2152.00
32.6578 2090.00
32.723 2173.00
32.7882 2107.00
32.8534 2167.00
32.9186 2201.00
32.9838 2154.00
33.0489 2125.00
33.1141 2165.00
33.1793 2170.00
33.2445 2140.00
33.3097 2246.00
33.3749 2369.00
33.4401 2382.00
33.5053 2490.00
33.5705 2605.00
33.6357 2630.00
33.7009 2721.00
33.7661 2669.00
33.8313 2692.00
33.8965 2564.00
33.9617 2453.00
34.0269 2525.00
34.0921 2358.00
34.1573 2259.00
34.2225 2224.00
34.2877 2176.00
34.3529 2004.00
34.4181 1972.00
34.4833 1940.00
34.5485 1873.00
34.6137 1794.00
34.6789 1719.00
34.7441 1680.00
34.8093 1741.00
34.8745 1693.00
34.9397 1663.00
35.0049 1744.00
35.0701 1620.00
35.1353 1580.00
35.2005 1633.00
35.2657 1620.00
35.3309 1627.00
35.3961 1597.00
35.4613 1605.00
35.5265 1576.00
35.5917 1598.00
35.6569 1648.00
35.7221 1635.00
35.7873 1609.00
35.8525 1630.00
35.9177 1679.00
35.9829 1633.00
36.0481 1725.00
36.1133 1693.00
36.1785 1717.00
36.2437 1747.00
36.3089 1780.00
36.3741 1774.00
36.4393 1711.00
36.5045 1745.00
36.5697 1741.00
36.6349 1738.00
36.7001 1723.00
36.7653 1774.00
36.8305 1762.00
36.8957 1743.00
36.9609 1737.00
37.0261 1730.00
37.0913 1743.00
37.1565 1691.00
37.2217 1685.00
37.2869 1681.00
37.3521 1634.00
37.4173 1654.00
37.4825 1731.00
37.5477 1712.00
37.6129 1735.00
37.6781 1623.00
37.7433 1681.00
37.8085 1578.00
37.8736 1585.00
37.9388 1594.00
38.004 1604.00
38.0692 1580.00
38.1344 1591.00
38.1996 1628.00
38.2648 1618.00
38.33 1565.00
38.3952 1528.00
38.4604 1575.00
38.5256 1504.00
38.5908 1540.00
38.656 1486.00
38.7212 1451.00
38.7864 1426.00
38.8516 1358.00
38.9168 1408.00
38.982 1423.00
39.0472 1319.00
39.1124 1334.00
39.1776 1379.00
39.2428 1307.00
39.308 1381.00
39.3732 1309.00
39.4384 1352.00
39.5036 1335.00
39.5688 1360.00
39.634 1381.00
39.6992 1352.00
39.7644 1381.00
39.8296 1329.00
39.8948 1370.00
39.96 1423.00
40.0252 1336.00
40.0904 1360.00
40.1556 1400.00
40.2208 1345.00
40.286 1301.00
40.3512 1282.00
40.4164 1283.00
40.4816 1255.00
40.5468 1187.00
40.612 1239.00
40.6772 1119.00
40.7424 1219.00
40.8076 1211.00
40.8728 1176.00
40.938 1142.00
41.0032 1097.00
41.0684 1076.00
41.1336 1186.00
41.1988 1168.00
41.264 1185.00
41.3292 1144.00
41.3944 1041.00
41.4596 1029.00
41.5248 1075.00
41.59 1121.00
41.6552 1138.00
41.7204 1081.00
41.7856 1115.00
41.8508 1139.00
41.916 1042.00
41.9812 1056.00
42.0464 1100.00
42.1116 1059.00
42.1768 1079.00
42.242 1116.00
42.3072 1074.00
42.3724 1003.00
42.4376 1035.00
42.5028 1050.00
42.568 1066.00
42.6332 1061.00
42.6983 1032.00
42.7635 1031.00
42.8287 1064.00
42.8939 1084.00
42.9591 1040.00
43.0243 1045.00
43.0895 1070.00
43.1547 1136.00
43.2199 1069.00
43.2851 1055.00
43.3503 1089.00
43.4155 1048.00
43.4807 1091.00
43.5459 1082.00
43.6111 1064.00
43.6763 1091.00
43.7415 1092.00
43.8067 1089.00
43.8719 1072.00
43.9371 1053.00
44.0023 995.00
44.0675 1020.00
44.1327 980.00
44.1979 1028.00
44.2631 995.00
44.3283 1034.00
44.3935 988.00
44.4587 1034.00
44.5239 998.00
44.5891 1039.00
44.6543 1020.00
44.7195 946.00
44.7847 894.00
44.8499 979.00
44.9151 1049.00
44.9803 977.00
45.0455 1012.00
45.1107 1003.00
45.1759 999.00
45.2411 939.00
45.3063 1013.00
45.3715 1028.00
45.4367 1035.00
45.5019 1019.00
45.5671 1028.00
45.6323 947.00
45.6975 1022.00
45.7627 931.00
45.8279 997.00
45.8931 958.00
45.9583 929.00
46.0235 993.00
46.0887 1026.00
46.1539 949.00
46.2191 954.00
46.2843 957.00
46.3495 965.00
46.4147 949.00
46.4799 892.00
46.5451 929.00
46.6103 983.00
46.6755 961.00
46.7407 923.00
46.8059 939.00
46.8711 922.00
46.9363 954.00
47.0015 954.00
47.0667 914.00
47.1319 946.00
47.1971 966.00
47.2623 977.00
47.3275 901.00
47.3927 943.00
47.4579 942.00
47.523 900.00
47.5882 976.00
47.6534 931.00
47.7186 913.00
47.7838 926.00
47.849 977.00
47.9142 975.00
47.9794 968.00
48.0446 944.00
48.1098 951.00
48.175 896.00
48.2402 944.00
48.3054 957.00
48.3706 922.00
48.4358 984.00
48.501 974.00
48.5662 1026.00
48.6314 973.00
48.6966 1020.00
48.7618 952.00
48.827 1008.00
48.8922 1048.00
48.9574 1007.00
49.0226 985.00
49.0878 1010.00
49.153 980.00
49.2182 1053.00
49.2834 935.00
49.3486 997.00
49.4138 1031.00
49.479 1022.00
49.5442 921.00
49.6094 966.00
49.6746 969.00
49.7398 996.00
49.805 930.00
49.8702 914.00
49.9354 956.00
50.0006 950.00
50.0658 926.00
50.131 928.00
50.1962 913.00
50.2614 988.00
50.3266 907.00
50.3918 912.00
50.457 899.00
50.5222 904.00
50.5874 938.00
50.6526 931.00
50.7178 977.00
50.783 919.00
50.8482 917.00
50.9134 920.00
50.9786 951.00
51.0438 929.00
51.109 957.00
51.1742 968.00
51.2394 898.00
51.3046 972.00
51.3698 960.00
51.435 932.00
51.5002 953.00
51.5654 972.00
51.6306 1001.00
51.6958 1001.00
51.761 961.00
51.8262 888.00
51.8914 939.00
51.9566 905.00
52.0218 954.00
52.087 892.00
52.1522 868.00
52.2174 894.00
52.2826 910.00
52.3477 920.00
52.4129 842.00
52.4781 920.00
52.5433 888.00
52.6085 876.00
52.6737 932.00
52.7389 898.00
52.8041 862.00
52.8693 838.00
52.9345 877.00
52.9997 921.00
53.0649 876.00
53.1301 881.00
53.1953 836.00
53.2605 857.00
53.3257 846.00
53.3909 924.00
53.4561 831.00
53.5213 876.00
53.5865 874.00
53.6517 854.00
53.7169 850.00
53.7821 810.00
53.8473 909.00
53.9125 840.00
53.9777 832.00
54.0429 837.00
54.1081 839.00
54.1733 866.00
54.2385 829.00
54.3037 889.00
54.3689 829.00
54.4341 815.00
54.4993 850.00
54.5645 814.00
54.6297 836.00
54.6949 903.00
54.7601 838.00
54.8253 861.00
54.8905 835.00
54.9557 847.00
55.0209 816.00
55.0861 839.00
55.1513 879.00
55.2165 764.00
55.2817 860.00
55.3469 846.00
55.4121 854.00
55.4773 851.00
55.5425 829.00
55.6077 875.00
55.6729 788.00
55.7381 834.00
55.8033 836.00
55.8685 877.00
55.9337 839.00
55.9989 814.00
56.0641 875.00
56.1293 879.00
56.1945 849.00
56.2597 847.00
56.3249 819.00
56.3901 833.00
56.4553 858.00
56.5205 836.00
56.5857 854.00
56.6509 850.00
56.7161 821.00
56.7813 844.00
56.8465 834.00
56.9117 889.00
56.9769 885.00
57.042 894.00
57.1073 888.00
57.1724 820.00
57.2376 921.00
57.3028 823.00
57.368 908.00
57.4332 875.00
57.4984 860.00
57.5636 843.00
57.6288 906.00
57.694 877.00
57.7592 797.00
57.8244 942.00
57.8896 922.00
57.9548 907.00
58.02 889.00
58.0852 901.00
58.1504 889.00
58.2156 864.00
58.2808 911.00
58.346 958.00
58.4112 896.00
58.4764 949.00
58.5416 927.00
58.6068 952.00
58.672 905.00
58.7372 915.00
58.8024 898.00
58.8676 941.00
58.9328 865.00
58.998 925.00
59.0632 944.00
59.1284 917.00
59.1936 932.00
59.2588 973.00
59.324 965.00
59.3892 938.00
59.4544 931.00
59.5196 1003.00
59.5848 1031.00
59.65 976.00
59.7152 1006.00
59.7804 1016.00
59.8456 994.00
59.9108 1008.00
59.976 1020.00
60.0412 1091.00
60.1064 1020.00
60.1716 1039.00
60.2368 970.00
60.302 989.00
60.3672 1016.00
60.4324 974.00
60.4976 962.00
60.5628 990.00
60.628 918.00
60.6932 958.00
60.7584 877.00
60.8236 882.00
60.8888 952.00
60.954 904.00
61.0192 852.00
61.0844 919.00
61.1496 864.00
61.2148 869.00
61.28 847.00
61.3452 925.00
61.4104 913.00
61.4756 875.00
61.5408 839.00
61.606 858.00
61.6712 859.00
61.7364 836.00
61.8016 865.00
61.8667 865.00
61.932 834.00
61.9971 808.00
62.0623 907.00
62.1275 828.00
62.1927 867.00
62.2579 897.00
62.3231 779.00
62.3883 818.00
62.4535 777.00
62.5187 865.00
62.5839 806.00
62.6491 877.00
62.7143 826.00
62.7795 899.00
62.8447 795.00
62.9099 829.00
62.9751 823.00
63.0403 833.00
63.1055 816.00
63.1707 811.00
63.2359 829.00
63.3011 815.00
63.3663 828.00
63.4315 828.00
63.4967 828.00
63.5619 795.00
63.6271 839.00
63.6923 821.00
63.7575 809.00
63.8227 807.00
63.8879 815.00
63.9531 816.00
64.0183 831.00
64.0835 840.00
64.1487 888.00
64.2139 856.00
64.2791 803.00
64.3443 833.00
64.4095 825.00
64.4747 812.00
64.5399 758.00
64.6051 816.00
64.6703 860.00
64.7355 773.00
64.8007 837.00
64.8659 787.00
64.9311 795.00
64.9963 809.00
65.0615 803.00
65.1267 808.00
65.1919 783.00
65.2571 819.00
65.3223 807.00
65.3875 832.00
65.4527 798.00
65.5179 845.00
65.5831 862.00
65.6483 782.00
65.7135 770.00
65.7787 816.00
65.8439 803.00
65.9091 820.00
65.9743 841.00
66.0395 797.00
66.1047 814.00
66.1699 772.00
66.2351 807.00
66.3003 794.00
66.3655 862.00
66.4307 772.00
66.4959 808.00
66.561 784.00
66.6263 735.00
66.6915 820.00
66.7566 815.00
66.8218 781.00
66.887 806.00
66.9522 755.00
67.0174 803.00
67.0826 802.00
67.1478 784.00
67.213 805.00
67.2782 817.00
67.3434 765.00
67.4086 740.00
67.4738 743.00
67.539 821.00
67.6042 790.00
67.6694 778.00
67.7346 755.00
67.7998 792.00
67.865 806.00
67.9302 752.00
67.9954 769.00
68.0606 757.00
68.1258 793.00
68.191 816.00
68.2562 852.00
68.3214 766.00
68.3866 752.00
68.4518 788.00
68.517 778.00
68.5822 813.00
68.6474 764.00
68.7126 803.00
68.7778 783.00
68.843 730.00
68.9082 804.00
68.9734 746.00
69.0386 787.00
69.1038 754.00
69.169 737.00
69.2342 784.00
69.2994 774.00
69.3646 811.00
69.4298 838.00
69.495 798.00
69.5602 767.00
69.6254 796.00
69.6906 712.00
69.7558 743.00
69.821 692.00
69.8862 780.00
69.9514 752.00
70.0166 750.00
70.0818 780.00
70.147 778.00
70.2122 791.00
70.2774 753.00
70.3426 752.00
70.4078 849.00
70.473 742.00
70.5382 779.00
70.6034 758.00
70.6686 700.00
70.7338 707.00
70.799 724.00
70.8642 731.00
70.9294 799.00
70.9946 718.00
71.0598 781.00
71.125 717.00
71.1902 760.00
71.2554 766.00
71.3205 735.00
71.3858 737.00
71.451 711.00
71.5162 808.00
71.5813 763.00
71.6465 750.00
71.7117 784.00
71.7769 743.00
71.8421 714.00
71.9073 748.00
71.9725 711.00
72.0377 716.00
72.1029 743.00
72.1681 760.00
72.2333 772.00
72.2985 793.00
72.3637 756.00
72.4289 693.00
72.4941 749.00
72.5593 724.00
72.6245 739.00
72.6897 755.00
72.7549 759.00
72.8201 732.00
72.8853 755.00
72.9505 773.00
73.0157 761.00
73.0809 743.00
73.1461 762.00
73.2113 833.00
73.2765 779.00
73.3417 815.00
73.4069 765.00
73.4721 690.00
73.5373 770.00
73.6025 792.00
73.6677 764.00
73.7329 700.00
73.7981 786.00
73.8633 743.00
73.9285 768.00
73.9937 747.00
74.0589 698.00
74.1241 719.00
74.1893 695.00
74.2545 768.00
74.3197 721.00
74.3849 688.00
74.4501 680.00
74.5153 728.00
74.5805 696.00
74.6457 713.00
74.7109 753.00
74.7761 747.00
74.8413 697.00
74.9065 732.00
74.9717 735.00
75.0369 703.00
75.1021 685.00
75.1673 678.00
75.2325 731.00
75.2977 693.00
75.3629 660.00
75.4281 666.00
75.4933 656.00
75.5585 676.00
75.6237 685.00
75.6889 663.00
75.7541 680.00
75.8193 669.00
75.8845 699.00
75.9497 628.00
76.0149 727.00
76.0801 728.00
76.1452 646.00
76.2104 646.00
76.2756 609.00
76.3409 673.00
76.406 621.00
76.4712 643.00
76.5364 659.00
76.6016 645.00
76.6668 676.00
76.732 637.00
76.7972 629.00
76.8624 604.00
76.9276 681.00
76.9928 655.00
77.058 596.00
77.1232 608.00
77.1884 685.00
77.2536 614.00
77.3188 629.00
77.384 602.00
77.4492 665.00
77.5144 635.00
77.5796 624.00
77.6448 631.00
77.71 635.00
77.7752 615.00
77.8404 643.00
77.9056 599.00
77.9708 592.00
78.036 592.00
78.1012 632.00
78.1664 593.00
78.2316 586.00
78.2968 619.00
78.362 637.00
78.4272 615.00
78.4924 633.00
78.5576 617.00
78.6228 631.00
78.688 587.00
78.7532 574.00
78.8184 629.00
78.8836 610.00
78.9488 635.00
79.014 575.00
79.0792 636.00
79.1444 573.00
79.2096 616.00
79.2748 611.00
79.34 617.00
79.4052 603.00
79.4704 603.00
79.5356 565.00
79.6008 677.00
79.666 568.00
79.7312 626.00
79.7964 612.00
79.8616 610.00
79.9268 578.00
79.992 583.00
80.0572 598.00
80.1224 603.00
80.1876 619.00
80.2528 594.00
80.318 591.00
80.3832 544.00
80.4484 552.00
80.5136 611.00
80.5788 562.00
80.644 546.00
80.7092 588.00
80.7744 533.00
80.8396 586.00
80.9048 570.00
80.9699 578.00
81.0351 545.00
81.1003 570.00
81.1655 591.00
81.2307 551.00
81.2959 594.00
81.3611 591.00
81.4263 585.00
81.4915 579.00
81.5567 565.00
81.6219 544.00
81.6871 528.00
81.7523 557.00
81.8175 570.00
81.8827 565.00
81.9479 580.00
82.0131 590.00
82.0783 576.00
82.1435 604.00
82.2087 551.00
82.2739 557.00
82.3391 522.00
82.4043 557.00
82.4695 554.00
82.5347 577.00
82.5999 531.00
82.6651 560.00
82.7303 580.00
82.7955 554.00
82.8607 570.00
82.9259 536.00
82.9911 515.00
83.0563 584.00
83.1215 543.00
83.1867 501.00
83.2519 533.00
83.3171 545.00
83.3823 547.00
83.4475 546.00
83.5127 500.00
83.5779 546.00
83.6431 523.00
83.7083 522.00
83.7735 554.00
83.8387 533.00
83.9039 520.00
83.9691 510.00
84.0343 523.00
84.0995 530.00
84.1647 522.00
84.2299 490.00
84.2951 536.00
84.3603 510.00
84.4255 537.00
84.4907 510.00
84.5559 506.00
84.6211 493.00
84.6863 491.00
84.7515 500.00
84.8167 502.00
84.8819 518.00
84.9471 500.00
85.0123 538.00
85.0775 492.00
85.1427 493.00
85.2079 505.00
85.2731 505.00
85.3383 465.00
85.4035 509.00
85.4687 475.00
85.5339 530.00
85.5991 502.00
85.6643 509.00
85.7295 491.00
85.7946 486.00
85.8598 525.00
85.925 498.00
85.9903 495.00
86.0554 497.00
86.1206 459.00
86.1858 476.00
86.251 466.00
86.3162 463.00
86.3814 470.00
86.4466 475.00
86.5118 471.00
86.577 501.00
86.6422 485.00
86.7074 498.00
86.7726 466.00
86.8378 460.00
86.903 470.00
86.9682 477.00
87.0334 472.00
87.0986 456.00
87.1638 528.00
87.229 493.00
87.2942 504.00
87.3594 450.00
87.4246 458.00
87.4898 463.00
87.555 445.00
87.6202 448.00
87.6854 420.00
87.7506 468.00
87.8158 482.00
87.881 481.00
87.9462 436.00
88.0114 428.00
88.0766 427.00
88.1418 461.00
88.207 457.00
88.2722 448.00
88.3374 441.00
88.4026 488.00
88.4678 448.00
88.533 433.00
88.5982 446.00
88.6634 424.00
88.7286 446.00
88.7938 418.00
88.859 450.00
88.9242 421.00
88.9894 465.00
89.0546 444.00
89.1198 429.00
89.185 417.00
89.2502 472.00
89.3154 397.00
89.3806 425.00
89.4458 459.00
89.511 465.00
89.5762 420.00
89.6414 388.00
89.7066 439.00
89.7718 462.00
89.837 432.00
89.9022 425.00
89.9674 434.00
90.0326 401.00
90.0978 398.00
90.163 418.00
90.2282 397.00
90.2934 407.00
90.3586 455.00
90.4238 410.00
90.489 451.00
90.5542 411.00
90.6193 414.00
90.6845 396.00
90.7497 464.00
90.8149 431.00
90.8801 424.00
90.9453 440.00
91.0105 395.00
91.0757 407.00
91.1409 420.00
91.2061 397.00
91.2713 445.00
91.3365 380.00
91.4017 420.00
91.4669 391.00
91.5321 402.00
91.5973 450.00
91.6625 432.00
91.7277 416.00
91.7929 385.00
91.8581 436.00
91.9233 425.00
91.9885 397.00
92.0537 382.00
92.1189 440.00
92.1841 412.00
92.2493 441.00
92.3145 443.00
92.3797 400.00
92.4449 422.00
92.5101 399.00
92.5753 422.00
92.6405 433.00
92.7057 448.00
92.7709 430.00
92.8361 396.00
92.9013 398.00
92.9665 415.00
93.0317 434.00
93.0969 427.00
93.1621 406.00
93.2273 428.00
93.2925 403.00
93.3577 400.00
93.4229 377.00
93.4881 418.00
93.5533 411.00
93.6185 391.00
93.6837 441.00
93.7489 415.00
93.8141 409.00
93.8793 400.00
93.9445 377.00
94.0097 408.00
94.0749 412.00
94.1401 371.00
94.2053 431.00
94.2705 402.00
94.3357 407.00
94.4009 415.00
94.4661 394.00
94.5313 441.00
94.5965 432.00
94.6617 399.00
94.7269 392.00
94.7921 413.00
94.8573 400.00
94.9225 401.00
94.9877 443.00
95.0529 407.00
95.1181 419.00
95.1833 432.00
95.2485 436.00
95.3137 429.00
95.3789 425.00
95.444 447.00
95.5092 401.00
95.5744 398.00
95.6396 436.00
95.7048 418.00
95.77 400.00
95.8352 421.00
95.9004 429.00
95.9656 425.00
96.0308 411.00
96.096 379.00
96.1612 411.00
96.2264 412.00
96.2916 413.00
96.3568 391.00
96.422 421.00
96.4872 414.00
96.5524 411.00
96.6176 405.00
96.6828 420.00
96.748 427.00
96.8132 401.00
96.8784 414.00
96.9436 436.00
97.0088 428.00
97.074 418.00
97.1392 414.00
97.2044 421.00
97.2696 421.00
97.3348 429.00
97.4 451.00
97.4652 470.00
97.5304 372.00
97.5956 408.00
97.6608 437.00
97.726 407.00
97.7912 364.00
97.8564 386.00
97.9216 438.00
97.9868 426.00
98.052 391.00
98.1172 424.00
98.1824 464.00
98.2476 420.00
98.3128 393.00
98.378 437.00
98.4432 437.00
98.5084 425.00
98.5736 443.00
98.6388 421.00
98.704 416.00
98.7692 443.00
98.8344 397.00
98.8996 430.00
98.9648 438.00
99.03 465.00
99.0952 418.00
99.1604 407.00
99.2256 419.00
99.2908 397.00
99.356 420.00
99.4212 391.00
99.4864 404.00
99.5516 412.00
99.6168 403.00
99.682 426.00
99.7472 454.00
99.8124 462.00
99.8776 434.00
99.9428 384.00
100.008 432.00
100.073 427.00
100.095 425.00