File: data/xrd_creation/results/PG_2645-1.xy
9.903433 3387.00
9.968632 3345.00
10.0338 3294.00
10.099 3280.00
10.1642 3207.00
10.2294 3304.00
10.2946 3349.00
10.3598 3254.00
10.425 3166.00
10.4902 3169.00
10.5554 3214.00
10.6206 3254.00
10.6858 3138.00
10.751 3172.00
10.8162 3124.00
10.8814 3118.00
10.9466 3082.00
11.0118 3122.00
11.077 3148.00
11.1422 2989.00
11.2074 3125.00
11.2726 3147.00
11.3378 3144.00
11.403 2999.00
11.4682 3044.00
11.5334 2933.00
11.5986 3018.00
11.6638 3084.00
11.729 2941.00
11.7942 2972.00
11.8594 2954.00
11.9246 2902.00
11.9898 2935.00
12.055 2934.00
12.1202 2993.00
12.1854 2965.00
12.2506 2842.00
12.3158 2854.00
12.381 3005.00
12.4462 3006.00
12.5114 3025.00
12.5766 2888.00
12.6418 2910.00
12.707 2881.00
12.7722 2894.00
12.8374 2897.00
12.9026 2877.00
12.9678 2847.00
13.033 2800.00
13.0982 2770.00
13.1634 2837.00
13.2286 2790.00
13.2938 2882.00
13.359 2825.00
13.4242 2878.00
13.4894 2849.00
13.5546 2845.00
13.6198 2734.00
13.685 2817.00
13.7502 2862.00
13.8154 2741.00
13.8805 2818.00
13.9457 2747.00
14.0109 2795.00
14.0761 2795.00
14.1413 2829.00
14.2065 2735.00
14.2717 2781.00
14.3369 2803.00
14.4021 2767.00
14.4673 2679.00
14.5325 2711.00
14.5977 2746.00
14.6629 2738.00
14.7281 2796.00
14.7933 2666.00
14.8585 2686.00
14.9237 2807.00
14.9889 2712.00
15.0541 2860.00
15.1193 2795.00
15.1845 2810.00
15.2497 2763.00
15.3149 2815.00
15.3801 2829.00
15.4453 2767.00
15.5105 2767.00
15.5757 2672.00
15.6409 2710.00
15.7061 2772.00
15.7713 2799.00
15.8365 2827.00
15.9017 2780.00
15.9669 2731.00
16.0321 2720.00
16.0973 2768.00
16.1625 2680.00
16.2277 2747.00
16.2929 2761.00
16.3581 2894.00
16.4233 2676.00
16.4885 2747.00
16.5537 2614.00
16.6189 2748.00
16.6841 2706.00
16.7493 2653.00
16.8145 2841.00
16.8797 2741.00
16.9449 2753.00
17.0101 2817.00
17.0753 2759.00
17.1405 2608.00
17.2057 2700.00
17.2709 2728.00
17.3361 2732.00
17.4013 2804.00
17.4665 2752.00
17.5317 2636.00
17.5969 2719.00
17.6621 2745.00
17.7273 2642.00
17.7925 2734.00
17.8577 2802.00
17.9229 2833.00
17.9881 2771.00
18.0533 2627.00
18.1185 2649.00
18.1837 2705.00
18.2489 2819.00
18.3141 2745.00
18.3793 2695.00
18.4445 2631.00
18.5097 2751.00
18.5749 2681.00
18.6401 2668.00
18.7052 2698.00
18.7704 2746.00
18.8356 2850.00
18.9008 2773.00
18.966 2888.00
19.0312 2929.00
19.0964 2970.00
19.1616 3057.00
19.2268 2808.00
19.292 2843.00
19.3572 2717.00
19.4224 2794.00
19.4876 2613.00
19.5528 2716.00
19.618 2649.00
19.6832 2566.00
19.7484 2746.00
19.8136 2731.00
19.8788 2620.00
19.944 2707.00
20.0092 2663.00
20.0744 2723.00
20.1396 2642.00
20.2048 2679.00
20.27 2605.00
20.3352 2643.00
20.4004 2631.00
20.4656 2681.00
20.5308 2783.00
20.596 2936.00
20.6612 3019.00
20.7264 2729.00
20.7916 2681.00
20.8568 2603.00
20.922 2664.00
20.9872 2670.00
21.0524 2651.00
21.1176 2639.00
21.1828 2606.00
21.248 2650.00
21.3132 2671.00
21.3784 2780.00
21.4436 2765.00
21.5088 2680.00
21.574 2732.00
21.6392 2672.00
21.7044 2614.00
21.7696 2695.00
21.8348 2694.00
21.9 2609.00
21.9652 2659.00
22.0304 2668.00
22.0956 2611.00
22.1608 2629.00
22.226 2596.00
22.2912 2567.00
22.3564 2589.00
22.4216 2608.00
22.4868 2573.00
22.552 2509.00
22.6172 2479.00
22.6824 2620.00
22.7476 2593.00
22.8128 2519.00
22.878 2592.00
22.9432 2575.00
23.0084 2641.00
23.0736 2596.00
23.1388 2650.00
23.204 2660.00
23.2692 2597.00
23.3344 2865.00
23.3996 3019.00
23.4647 3246.00
23.5299 2860.00
23.5951 2600.00
23.6603 2633.00
23.7255 2620.00
23.7907 2543.00
23.8559 2468.00
23.9211 2635.00
23.9863 2581.00
24.0515 2584.00
24.1167 2569.00
24.1819 2554.00
24.2471 2523.00
24.3123 2617.00
24.3775 2525.00
24.4427 2599.00
24.5079 2641.00
24.5731 2636.00
24.6383 2689.00
24.7035 2784.00
24.7687 2786.00
24.8339 2683.00
24.8991 2721.00
24.9643 2653.00
25.0295 2773.00
25.0947 2727.00
25.1599 2805.00
25.2251 3102.00
25.2903 3703.00
25.3555 5200.00
25.4207 8181.00
25.4859 11890.00
25.5511 8835.00
25.6163 4503.00
25.6815 3318.00
25.7467 3142.00
25.8119 3100.00
25.8771 3162.00
25.9423 3684.00
26.0075 4366.00
26.0727 6067.00
26.1379 7067.00
26.2031 5104.00
26.2683 3440.00
26.3335 2896.00
26.3987 2691.00
26.4639 2683.00
26.5291 2730.00
26.5943 2673.00
26.6595 2638.00
26.7247 2616.00
26.7899 2540.00
26.8551 2568.00
26.9203 2671.00
26.9855 2568.00
27.0507 2628.00
27.1159 2674.00
27.1811 2639.00
27.2463 2751.00
27.3115 2978.00
27.3767 3288.00
27.4419 3949.00
27.5071 5243.00
27.5723 5678.00
27.6375 4638.00
27.7027 3739.00
27.7679 3180.00
27.8331 2929.00
27.8983 2883.00
27.9635 2708.00
28.0287 2748.00
28.0939 2687.00
28.1591 2692.00
28.2243 2698.00
28.2894 2630.00
28.3546 2609.00
28.4198 2660.00
28.485 2576.00
28.5502 2756.00
28.6154 2678.00
28.6806 2686.00
28.7458 2705.00
28.811 2671.00
28.8762 2771.00
28.9414 2646.00
29.0066 2726.00
29.0718 2616.00
29.137 2625.00
29.2022 2556.00
29.2674 2530.00
29.3326 2485.00
29.3978 2555.00
29.463 2579.00
29.5282 2448.00
29.5934 2547.00
29.6586 2616.00
29.7238 2849.00
29.789 3149.00
29.8542 3724.00
29.9194 4126.00
29.9846 3778.00
30.0498 2994.00
30.115 2613.00
30.1802 2563.00
30.2454 2581.00
30.3106 2604.00
30.3758 2568.00
30.441 3011.00
30.5062 3341.00
30.5714 3135.00
30.6366 2754.00
30.7018 2708.00
30.767 2808.00
30.8322 2869.00
30.8974 2612.00
30.9626 2672.00
31.0278 2463.00
31.093 2445.00
31.1582 2454.00
31.2234 2569.00
31.2886 2435.00
31.3538 2526.00
31.419 2566.00
31.4842 2902.00
31.5494 2932.00
31.6146 2845.00
31.6798 2958.00
31.745 3157.00
31.8102 3494.00
31.8754 3146.00
31.9406 2768.00
32.0058 2667.00
32.071 2774.00
32.1362 2670.00
32.2014 2819.00
32.2666 2948.00
32.3318 3086.00
32.397 3168.00
32.4622 3072.00
32.5274 2952.00
32.5926 2794.00
32.6578 2686.00
32.723 2955.00
32.7882 2878.00
32.8534 2954.00
32.9186 3314.00
32.9838 4034.00
33.0489 5901.00
33.1141 10247.00
33.1793 14540.00
33.2445 13120.00
33.3097 7791.00
33.3749 4479.00
33.4401 3273.00
33.5053 2828.00
33.5705 2668.00
33.6357 2545.00
33.7009 2622.00
33.7661 2474.00
33.8313 2508.00
33.8965 2506.00
33.9617 2440.00
34.0269 2460.00
34.0921 2495.00
34.1573 2585.00
34.2225 2592.00
34.2877 2644.00
34.3529 2544.00
34.4181 2539.00
34.4833 2534.00
34.5485 2633.00
34.6137 2674.00
34.6789 2691.00
34.7441 2928.00
34.8093 3139.00
34.8745 3343.00
34.9397 3060.00
35.0049 2886.00
35.0701 2798.00
35.1353 2794.00
35.2005 2820.00
35.2657 3099.00
35.3309 3680.00
35.3961 4843.00
35.4613 6070.00
35.5265 5995.00
35.5917 4887.00
35.6569 3710.00
35.7221 3094.00
35.7873 2833.00
35.8525 2864.00
35.9177 2783.00
35.9829 2759.00
36.0481 2685.00
36.1133 2651.00
36.1785 2659.00
36.2437 2597.00
36.3089 2817.00
36.3741 3153.00
36.4393 3952.00
36.5045 4835.00
36.5697 4164.00
36.6349 3579.00
36.7001 3452.00
36.7653 4344.00
36.8305 5449.00
36.8957 5173.00
36.9609 4666.00
37.0261 3624.00
37.0913 3097.00
37.1565 2755.00
37.2217 2656.00
37.2869 2780.00
37.3521 2602.00
37.4173 2495.00
37.4825 2466.00
37.5477 2393.00
37.6129 2326.00
37.6781 2409.00
37.7433 2332.00
37.8085 2395.00
37.8736 2374.00
37.9388 2410.00
38.004 2311.00
38.0692 2382.00
38.1344 2340.00
38.1996 2363.00
38.2648 2441.00
38.33 2531.00
38.3952 2666.00
38.4604 3032.00
38.5256 3356.00
38.5908 3046.00
38.656 2846.00
38.7212 2489.00
38.7864 2452.00
38.8516 2457.00
38.9168 2308.00
38.982 2391.00
39.0472 2371.00
39.1124 2348.00
39.1776 2214.00
39.2428 2386.00
39.308 2414.00
39.3732 2268.00
39.4384 2282.00
39.5036 2339.00
39.5688 2356.00
39.634 2549.00
39.6992 2705.00
39.7644 2862.00
39.8296 2686.00
39.8948 2750.00
39.96 2973.00
40.0252 3191.00
40.0904 2840.00
40.1556 2680.00
40.2208 2600.00
40.286 2450.00
40.3512 2432.00
40.4164 2459.00
40.4816 2388.00
40.5468 2409.00
40.612 2468.00
40.6772 2382.00
40.7424 2470.00
40.8076 2400.00
40.8728 2409.00
40.938 2463.00
41.0032 2372.00
41.0684 2474.00
41.1336 2414.00
41.1988 2377.00
41.264 2359.00
41.3292 2317.00
41.3944 2420.00
41.4596 2412.00
41.5248 2480.00
41.59 2954.00
41.6552 3332.00
41.7204 3045.00
41.7856 2736.00
41.8508 2465.00
41.916 2354.00
41.9812 2497.00
42.0464 2341.00
42.1116 2397.00
42.1768 2332.00
42.242 2410.00
42.3072 2431.00
42.3724 2438.00
42.4376 2515.00
42.5028 2587.00
42.568 2583.00
42.6332 2533.00
42.6983 2623.00
42.7635 2453.00
42.8287 2415.00
42.8939 2465.00
42.9591 2470.00
43.0243 2607.00
43.0895 2677.00
43.1547 2754.00
43.2199 2965.00
43.2851 3158.00
43.3503 3722.00
43.4155 4743.00
43.4807 6025.00
43.5459 5381.00
43.6111 4502.00
43.6763 3426.00
43.7415 3002.00
43.8067 2760.00
43.8719 2625.00
43.9371 2656.00
44.0023 2746.00
44.0675 2687.00
44.1327 2942.00
44.1979 3221.00
44.2631 3649.00
44.3283 4969.00
44.3935 6485.00
44.4587 5547.00
44.5239 4984.00
44.5891 3607.00
44.6543 3061.00
44.7195 2834.00
44.7847 2574.00
44.8499 2566.00
44.9151 2576.00
44.9803 2472.00
45.0455 2512.00
45.1107 2439.00
45.1759 2408.00
45.2411 2465.00
45.3063 2467.00
45.3715 2688.00
45.4367 2825.00
45.5019 2665.00
45.5671 2778.00
45.6323 2579.00
45.6975 2453.00
45.7627 2741.00
45.8279 2806.00
45.8931 3313.00
45.9583 3867.00
46.0235 3352.00
46.0887 3097.00
46.1539 2668.00
46.2191 2459.00
46.2843 2413.00
46.3495 2441.00
46.4147 2314.00
46.4799 2410.00
46.5451 2393.00
46.6103 2443.00
46.6755 2491.00
46.7407 2657.00
46.8059 2909.00
46.8711 3549.00
46.9363 3239.00
47.0015 2942.00
47.0667 2648.00
47.1319 2454.00
47.1971 2465.00
47.2623 2407.00
47.3275 2347.00
47.3927 2279.00
47.4579 2383.00
47.523 2407.00
47.5882 2548.00
47.6534 2545.00
47.7186 2564.00
47.7838 2511.00
47.849 2757.00
47.9142 3292.00
47.9794 4314.00
48.0446 4214.00
48.1098 3755.00
48.175 3241.00
48.2402 2731.00
48.3054 2583.00
48.3706 2676.00
48.4358 2627.00
48.501 2550.00
48.5662 2385.00
48.6314 2540.00
48.6966 2456.00
48.7618 2469.00
48.827 2645.00
48.8922 2607.00
48.9574 2730.00
49.0226 2797.00
49.0878 3315.00
49.153 3927.00
49.2182 4242.00
49.2834 3812.00
49.3486 3394.00
49.4138 3083.00
49.479 2732.00
49.5442 2926.00
49.6094 3020.00
49.6746 2857.00
49.7398 2839.00
49.805 2671.00
49.8702 2550.00
49.9354 2658.00
50.0006 2764.00
50.0658 2869.00
50.131 3164.00
50.1962 3806.00
50.2614 3854.00
50.3266 3375.00
50.3918 3191.00
50.457 2864.00
50.5222 2890.00
50.5874 3131.00
50.6526 2874.00
50.7178 2722.00
50.783 2466.00
50.8482 2482.00
50.9134 2492.00
50.9786 2491.00
51.0438 2408.00
51.109 2421.00
51.1742 2287.00
51.2394 2195.00
51.3046 2371.00
51.3698 2213.00
51.435 2237.00
51.5002 2216.00
51.5654 2290.00
51.6306 2245.00
51.6958 2302.00
51.761 2365.00
51.8262 2476.00
51.8914 2501.00
51.9566 2539.00
52.0218 2553.00
52.087 2469.00
52.1522 2421.00
52.2174 2300.00
52.2826 2372.00
52.3477 2309.00
52.4129 2299.00
52.4781 2277.00
52.5433 2371.00
52.6085 2368.00
52.6737 2374.00
52.7389 2417.00
52.8041 2297.00
52.8693 2352.00
52.9345 2394.00
52.9997 2286.00
53.0649 2234.00
53.1301 2276.00
53.1953 2304.00
53.2605 2330.00
53.3257 2452.00
53.3909 2370.00
53.4561 2496.00
53.5213 2502.00
53.5865 2332.00
53.6517 2344.00
53.7169 2260.00
53.7821 2360.00
53.8473 2332.00
53.9125 2360.00
53.9777 2352.00
54.0429 2472.00
54.1081 2479.00
54.1733 2369.00
54.2385 2443.00
54.3037 2548.00
54.3689 2611.00
54.4341 2528.00
54.4993 2537.00
54.5645 2390.00
54.6297 2358.00
54.6949 2361.00
54.7601 2293.00
54.8253 2307.00
54.8905 2306.00
54.9557 2238.00
55.0209 2283.00
55.0861 2436.00
55.1513 2376.00
55.2165 2385.00
55.2817 2690.00
55.3469 3039.00
55.4121 3933.00
55.4773 3844.00
55.5425 3786.00
55.6077 3790.00
55.6729 3022.00
55.7381 2904.00
55.8033 2641.00
55.8685 2557.00
55.9337 2283.00
55.9989 2321.00
56.0641 2396.00
56.1293 2456.00
56.1945 2282.00
56.2597 2370.00
56.3249 2550.00
56.3901 2548.00
56.4553 2455.00
56.5205 2647.00
56.5857 2526.00
56.6509 2537.00
56.7161 2531.00
56.7813 2374.00
56.8465 2328.00
56.9117 2534.00
56.9769 2509.00
57.042 2407.00
57.1073 2438.00
57.1724 2560.00
57.2376 2519.00
57.3028 2541.00
57.368 2506.00
57.4332 2588.00
57.4984 2742.00
57.5636 2856.00
57.6288 2783.00
57.694 2675.00
57.7592 2506.00
57.8244 2343.00
57.8896 2501.00
57.9548 2410.00
58.02 2310.00
58.0852 2292.00
58.1504 2235.00
58.2156 2303.00
58.2808 2348.00
58.346 2345.00
58.4112 2273.00
58.4764 2328.00
58.5416 2281.00
58.6068 2293.00
58.672 2321.00
58.7372 2486.00
58.8024 2592.00
58.8676 3054.00
58.9328 3660.00
58.998 3315.00
59.0632 3265.00
59.1284 3305.00
59.1936 3030.00
59.2588 2804.00
59.324 2729.00
59.3892 2506.00
59.4544 2417.00
59.5196 2336.00
59.5848 2246.00
59.65 2340.00
59.7152 2362.00
59.7804 2440.00
59.8456 2449.00
59.9108 2365.00
59.976 2473.00
60.0412 2722.00
60.1064 2899.00
60.1716 2801.00
60.2368 2867.00
60.302 2885.00
60.3672 3113.00
60.4324 3458.00
60.4976 3250.00
60.5628 3028.00
60.628 2940.00
60.6932 2643.00
60.7584 2535.00
60.8236 2485.00
60.8888 2542.00
60.954 2522.00
61.0192 2416.00
61.0844 2434.00
61.1496 2324.00
61.2148 2249.00
61.28 2199.00
61.3452 2273.00
61.4104 2276.00
61.4756 2283.00
61.5408 2249.00
61.606 2263.00
61.6712 2280.00
61.7364 2278.00
61.8016 2359.00
61.8667 2262.00
61.932 2311.00
61.9971 2233.00
62.0623 2202.00
62.1275 2183.00
62.1927 2257.00
62.2579 2191.00
62.3231 2181.00
62.3883 2236.00
62.4535 2238.00
62.5187 2324.00
62.5839 2365.00
62.6491 2359.00
62.7143 2480.00
62.7795 2416.00
62.8447 2452.00
62.9099 2416.00
62.9751 2385.00
63.0403 2425.00
63.1055 2524.00
63.1707 2339.00
63.2359 2365.00
63.3011 2404.00
63.3663 2365.00
63.4315 2364.00
63.4967 2343.00
63.5619 2287.00
63.6271 2314.00
63.6923 2265.00
63.7575 2250.00
63.8227 2309.00
63.8879 2321.00
63.9531 2347.00
64.0183 2529.00
64.0835 2454.00
64.1487 2595.00
64.2139 2770.00
64.2791 2891.00
64.3443 2693.00
64.4095 2697.00
64.4747 2534.00
64.5399 2500.00
64.6051 2306.00
64.6703 2394.00
64.7355 2346.00
64.8007 2472.00
64.8659 2555.00
64.9311 2626.00
64.9963 2854.00
65.0615 2785.00
65.1267 2731.00
65.1919 2511.00
65.2571 2452.00
65.3223 2412.00
65.3875 2387.00
65.4527 2393.00
65.5179 2523.00
65.5831 2560.00
65.6483 2438.00
65.7135 2618.00
65.7787 2646.00
65.8439 2532.00
65.9091 2699.00
65.9743 3085.00
66.0395 3037.00
66.1047 2760.00
66.1699 2664.00
66.2351 2616.00
66.3003 2512.00
66.3655 2508.00
66.4307 2489.00
66.4959 2423.00
66.561 2443.00
66.6263 2373.00
66.6915 2386.00
66.7566 2401.00
66.8218 2512.00
66.887 2551.00
66.9522 2555.00
67.0174 2484.00
67.0826 2479.00
67.1478 2417.00
67.213 2321.00
67.2782 2391.00
67.3434 2390.00
67.4086 2262.00
67.4738 2289.00
67.539 2265.00
67.6042 2389.00
67.6694 2514.00
67.7346 2357.00
67.7998 2324.00
67.865 2401.00
67.9302 2378.00
67.9954 2279.00
68.0606 2205.00
68.1258 2201.00
68.191 2194.00
68.2562 2161.00
68.3214 2232.00
68.3866 2193.00
68.4518 2215.00
68.517 2403.00
68.5822 2313.00
68.6474 2289.00
68.7126 2406.00
68.7778 2296.00
68.843 2312.00
68.9082 2279.00
68.9734 2472.00
69.0386 2754.00
69.1038 3330.00
69.169 3540.00
69.2342 3044.00
69.2994 3091.00
69.3646 3057.00
69.4298 2573.00
69.495 2389.00
69.5602 2309.00
69.6254 2251.00
69.6906 2349.00
69.7558 2266.00
69.821 2220.00
69.8862 2234.00
69.9514 2286.00
70.0166 2264.00
70.0818 2220.00
70.147 2253.00
70.2122 2275.00
70.2774 2234.00
70.3426 2166.00
70.4078 2148.00
70.473 2171.00
70.5382 2209.00
70.6034 2194.00
70.6686 2273.00
70.7338 2155.00
70.799 2199.00
70.8642 2222.00
70.9294 2261.00
70.9946 2201.00
71.0598 2229.00
71.125 2159.00
71.1902 2248.00
71.2554 2200.00
71.3205 2263.00
71.3858 2204.00
71.451 2208.00
71.5162 2318.00
71.5813 2222.00
71.6465 2193.00
71.7117 2279.00
71.7769 2143.00
71.8421 2266.00
71.9073 2236.00
71.9725 2191.00
72.0377 2277.00
72.1029 2267.00
72.1681 2431.00
72.2333 2503.00
72.2985 2724.00
72.3637 2457.00
72.4289 2487.00
72.4941 2538.00
72.5593 2431.00
72.6245 2312.00
72.6897 2256.00
72.7549 2167.00
72.8201 2228.00
72.8853 2237.00
72.9505 2375.00
73.0157 2405.00
73.0809 2447.00
73.1461 2348.00
73.2113 2260.00
73.2765 2241.00
73.3417 2293.00
73.4069 2293.00
73.4721 2263.00
73.5373 2298.00
73.6025 2340.00
73.6677 2375.00
73.7329 2370.00
73.7981 2511.00
73.8633 2646.00
73.9285 2810.00
73.9937 2932.00
74.0589 2793.00
74.1241 2767.00
74.1893 2691.00
74.2545 2703.00
74.3197 2560.00
74.3849 2558.00
74.4501 2548.00
74.5153 2671.00
74.5805 2683.00
74.6457 2854.00
74.7109 2964.00
74.7761 2952.00
74.8413 2926.00
74.9065 2873.00
74.9717 2769.00
75.0369 2613.00
75.1021 2485.00
75.1673 2455.00
75.2325 2494.00
75.2977 2496.00
75.3629 2512.00
75.4281 2588.00
75.4933 2553.00
75.5585 2407.00
75.6237 2542.00
75.6889 2576.00
75.7541 2553.00
75.8193 2645.00
75.8845 2502.00
75.9497 2376.00
76.0149 2533.00
76.0801 2408.00
76.1452 2458.00
76.2104 2543.00
76.2756 2503.00
76.3409 2515.00
76.406 2368.00
76.4712 2495.00
76.5364 2380.00
76.6016 2324.00
76.6668 2329.00
76.732 2122.00
76.7972 2251.00
76.8624 2334.00
76.9276 2158.00
76.9928 2233.00
77.058 2127.00
77.1232 2253.00
77.1884 2258.00
77.2536 2279.00
77.3188 2194.00
77.384 2340.00
77.4492 2294.00
77.5144 2279.00
77.5796 2228.00
77.6448 2161.00
77.71 2279.00
77.7752 2384.00
77.8404 2437.00
77.9056 2392.00
77.9708 2390.00
78.036 2352.00
78.1012 2455.00
78.1664 2338.00
78.2316 2353.00
78.2968 2306.00
78.362 2234.00
78.4272 2280.00
78.4924 2258.00
78.5576 2167.00
78.6228 2242.00
78.688 2302.00
78.7532 2295.00
78.8184 2246.00
78.8836 2203.00
78.9488 2197.00
79.014 2248.00
79.0792 2190.00
79.1444 2246.00
79.2096 2197.00
79.2748 2203.00
79.34 2242.00
79.4052 2192.00
79.4704 2213.00
79.5356 2248.00
79.6008 2207.00
79.666 2309.00
79.7312 2253.00
79.7964 2234.00
79.8616 2368.00
79.9268 2412.00
79.992 2520.00
80.0572 2516.00
80.1224 2441.00
80.1876 2438.00
80.2528 2448.00
80.318 2626.00
80.3832 2490.00
80.4484 2390.00
80.5136 2384.00
80.5788 2467.00
80.644 2314.00
80.7092 2256.00
80.7744 2174.00
80.8396 2301.00
80.9048 2210.00
80.9699 2127.00
81.0351 2165.00
81.1003 2305.00
81.1655 2149.00
81.2307 2130.00
81.2959 2150.00
81.3611 2147.00
81.4263 2252.00
81.4915 2220.00
81.5567 2228.00
81.6219 2231.00
81.6871 2266.00
81.7523 2212.00
81.8175 2187.00
81.8827 2249.00
81.9479 2366.00
82.0131 2311.00
82.0783 2408.00
82.1435 2381.00
82.2087 2449.00
82.2739 2435.00
82.3391 2406.00
82.4043 2365.00
82.4695 2273.00
82.5347 2276.00
82.5999 2339.00
82.6651 2296.00
82.7303 2309.00
82.7955 2343.00
82.8607 2372.00
82.9259 2304.00
82.9911 2398.00
83.0563 2321.00
83.1215 2367.00
83.1867 2342.00
83.2519 2305.00
83.3171 2338.00
83.3823 2360.00
83.4475 2379.00
83.5127 2333.00
83.5779 2412.00
83.6431 2352.00
83.7083 2384.00
83.7735 2372.00
83.8387 2391.00
83.9039 2363.00
83.9691 2418.00
84.0343 2436.00
84.0995 2333.00
84.1647 2350.00
84.2299 2353.00
84.2951 2267.00
84.3603 2378.00
84.4255 2432.00
84.4907 2389.00
84.5559 2396.00
84.6211 2206.00
84.6863 2350.00
84.7515 2378.00
84.8167 2229.00
84.8819 2347.00
84.9471 2312.00
85.0123 2471.00
85.0775 2497.00
85.1427 2458.00
85.2079 2367.00
85.2731 2397.00
85.3383 2467.00
85.4035 2553.00
85.4687 2505.00
85.5339 2398.00
85.5991 2495.00
85.6643 2405.00
85.7295 2430.00
85.7946 2534.00
85.8598 2432.00
85.925 2377.00
85.9903 2439.00
86.0554 2332.00
86.1206 2318.00
86.1858 2259.00
86.251 2335.00
86.3162 2159.00
86.3814 2388.00
86.4466 2277.00
86.5118 2260.00
86.577 2277.00
86.6422 2269.00
86.7074 2253.00
86.7726 2264.00
86.8378 2240.00
86.903 2324.00
86.9682 2277.00
87.0334 2235.00
87.0986 2192.00
87.1638 2221.00
87.229 2227.00
87.2942 2204.00
87.3594 2290.00
87.4246 2223.00
87.4898 2220.00
87.555 2235.00
87.6202 2170.00
87.6854 2249.00
87.7506 2266.00
87.8158 2303.00
87.881 2266.00
87.9462 2153.00
88.0114 2105.00
88.0766 2193.00
88.1418 2193.00
88.207 2285.00
88.2722 2230.00
88.3374 2251.00
88.4026 2265.00
88.4678 2221.00
88.533 2285.00
88.5982 2335.00
88.6634 2251.00
88.7286 2336.00
88.7938 2195.00
88.859 2164.00
88.9242 2258.00
88.9894 2291.00
89.0546 2252.00
89.1198 2411.00
89.185 2400.00
89.2502 2468.00
89.3154 2352.00
89.3806 2271.00
89.4458 2279.00
89.511 2380.00
89.5762 2394.00
89.6414 2227.00
89.7066 2225.00
89.7718 2249.00
89.837 2310.00
89.9022 2274.00
89.9674 2241.00
90.0326 2334.00
90.0978 2330.00
90.163 2292.00
90.2282 2251.00
90.2934 2251.00
90.3586 2199.00
90.4238 2242.00
90.489 2319.00
90.5542 2207.00
90.6193 2219.00
90.6845 2212.00
90.7497 2206.00
90.8149 2084.00
90.8801 2193.00
90.9453 2279.00
91.0105 2105.00
91.0757 2224.00
91.1409 2359.00
91.2061 2401.00
91.2713 2330.00
91.3365 2231.00
91.4017 2167.00
91.4669 2280.00
91.5321 2317.00
91.5973 2249.00
91.6625 2295.00
91.7277 2200.00
91.7929 2365.00
91.8581 2317.00
91.9233 2373.00
91.9885 2297.00
92.0537 2285.00
92.1189 2277.00
92.1841 2305.00
92.2493 2330.00
92.3145 2226.00
92.3797 2218.00
92.4449 2142.00
92.5101 2146.00
92.5753 2310.00
92.6405 2167.00
92.7057 2211.00
92.7709 2214.00
92.8361 2275.00
92.9013 2257.00
92.9665 2204.00
93.0317 2185.00
93.0969 2253.00
93.1621 2267.00
93.2273 2316.00
93.2925 2252.00
93.3577 2357.00
93.4229 2188.00
93.4881 2209.00
93.5533 2285.00
93.6185 2226.00
93.6837 2300.00
93.7489 2336.00
93.8141 2166.00
93.8793 2227.00
93.9445 2308.00
94.0097 2380.00
94.0749 2387.00
94.1401 2399.00
94.2053 2516.00
94.2705 2468.00
94.3357 2487.00
94.4009 2523.00
94.4661 2381.00
94.5313 2431.00
94.5965 2363.00
94.6617 2369.00
94.7269 2501.00
94.7921 2441.00
94.8573 2530.00
94.9225 2695.00
94.9877 2682.00
95.0529 2528.00
95.1181 2559.00
95.1833 2495.00
95.2485 2614.00
95.3137 2550.00
95.3789 2499.00
95.444 2413.00
95.5092 2341.00
95.5744 2366.00
95.6396 2316.00
95.7048 2280.00
95.77 2293.00
95.8352 2317.00
95.9004 2283.00
95.9656 2241.00
96.0308 2186.00
96.096 2308.00
96.1612 2231.00
96.2264 2237.00
96.2916 2230.00
96.3568 2259.00
96.422 2277.00
96.4872 2341.00
96.5524 2236.00
96.6176 2184.00
96.6828 2330.00
96.748 2356.00
96.8132 2330.00
96.8784 2297.00
96.9436 2372.00
97.0088 2505.00
97.074 2671.00
97.1392 2572.00
97.2044 2478.00
97.2696 2524.00
97.3348 2596.00
97.4 2597.00
97.4652 2567.00
97.5304 2314.00
97.5956 2281.00
97.6608 2298.00
97.726 2232.00
97.7912 2326.00
97.8564 2273.00
97.9216 2359.00
97.9868 2288.00
98.052 2256.00
98.1172 2222.00
98.1824 2291.00
98.2476 2294.00
98.3128 2315.00
98.378 2417.00
98.4432 2402.00
98.5084 2361.00
98.5736 2272.00
98.6388 2236.00
98.704 2367.00
98.7692 2269.00
98.8344 2267.00
98.8996 2200.00
98.9648 2188.00
99.03 2287.00
99.0952 2271.00
99.1604 2320.00
99.2256 2311.00
99.2908 2343.00
99.356 2264.00
99.4212 2293.00
99.4864 2274.00
99.5516 2305.00
99.6168 2232.00
99.682 2234.00
99.7472 2350.00
99.8124 2308.00
99.8776 2232.00
99.9428 2198.00
100.008 2124.00
100.073 2220.00
100.095 2130.00