File: data/xrd_creation/results/PG_2038-1.xy
9.903433 3188.00
9.968632 3173.00
10.0338 3147.00
10.099 3145.00
10.1642 3119.00
10.2294 3036.00
10.2946 3013.00
10.3598 3027.00
10.425 2993.00
10.4902 3110.00
10.5554 2982.00
10.6206 2990.00
10.6858 2963.00
10.751 2991.00
10.8162 2893.00
10.8814 2927.00
10.9466 2987.00
11.0118 2870.00
11.077 2853.00
11.1422 2810.00
11.2074 2761.00
11.2726 2725.00
11.3378 2798.00
11.403 2775.00
11.4682 2836.00
11.5334 2807.00
11.5986 2777.00
11.6638 2747.00
11.729 2748.00
11.7942 2659.00
11.8594 2704.00
11.9246 2708.00
11.9898 2698.00
12.055 2639.00
12.1202 2748.00
12.1854 2710.00
12.2506 2720.00
12.3158 2614.00
12.381 2692.00
12.4462 2578.00
12.5114 2654.00
12.5766 2701.00
12.6418 2735.00
12.707 2693.00
12.7722 2587.00
12.8374 2639.00
12.9026 2626.00
12.9678 2590.00
13.033 2580.00
13.0982 2453.00
13.1634 2601.00
13.2286 2610.00
13.2938 2506.00
13.359 2593.00
13.4242 2522.00
13.4894 2604.00
13.5546 2572.00
13.6198 2501.00
13.685 2487.00
13.7502 2549.00
13.8154 2450.00
13.8805 2414.00
13.9457 2491.00
14.0109 2554.00
14.0761 2464.00
14.1413 2454.00
14.2065 2459.00
14.2717 2483.00
14.3369 2409.00
14.4021 2415.00
14.4673 2443.00
14.5325 2415.00
14.5977 2384.00
14.6629 2366.00
14.7281 2420.00
14.7933 2313.00
14.8585 2377.00
14.9237 2391.00
14.9889 2419.00
15.0541 2242.00
15.1193 2342.00
15.1845 2331.00
15.2497 2327.00
15.3149 2471.00
15.3801 2306.00
15.4453 2310.00
15.5105 2368.00
15.5757 2262.00
15.6409 2301.00
15.7061 2321.00
15.7713 2341.00
15.8365 2459.00
15.9017 2305.00
15.9669 2262.00
16.0321 2302.00
16.0973 2321.00
16.1625 2313.00
16.2277 2321.00
16.2929 2378.00
16.3581 2279.00
16.4233 2262.00
16.4885 2283.00
16.5537 2194.00
16.6189 2226.00
16.6841 2334.00
16.7493 2382.00
16.8145 2256.00
16.8797 2211.00
16.9449 2219.00
17.0101 2280.00
17.0753 2273.00
17.1405 2300.00
17.2057 2320.00
17.2709 2389.00
17.3361 2566.00
17.4013 2767.00
17.4665 2655.00
17.5317 2590.00
17.5969 2695.00
17.6621 3070.00
17.7273 3467.00
17.7925 4015.00
17.8577 2782.00
17.9229 2184.00
17.9881 2173.00
18.0533 2115.00
18.1185 2112.00
18.1837 2180.00
18.2489 2162.00
18.3141 2154.00
18.3793 2128.00
18.4445 2149.00
18.5097 2151.00
18.5749 2114.00
18.6401 2117.00
18.7052 2082.00
18.7704 2120.00
18.8356 2086.00
18.9008 2055.00
18.966 2007.00
19.0312 2090.00
19.0964 1931.00
19.1616 2080.00
19.2268 1983.00
19.292 2075.00
19.3572 1971.00
19.4224 1963.00
19.4876 1988.00
19.5528 2024.00
19.618 2112.00
19.6832 2004.00
19.7484 1929.00
19.8136 2068.00
19.8788 2003.00
19.944 2024.00
20.0092 1995.00
20.0744 2009.00
20.1396 1951.00
20.2048 1988.00
20.27 1933.00
20.3352 1967.00
20.4004 1914.00
20.4656 2016.00
20.5308 1963.00
20.596 1937.00
20.6612 1938.00
20.7264 1941.00
20.7916 1866.00
20.8568 1993.00
20.922 2007.00
20.9872 1925.00
21.0524 1946.00
21.1176 1996.00
21.1828 1889.00
21.248 1880.00
21.3132 2019.00
21.3784 1971.00
21.4436 1950.00
21.5088 1878.00
21.574 1967.00
21.6392 1904.00
21.7044 1862.00
21.7696 1979.00
21.8348 1925.00
21.9 1954.00
21.9652 1896.00
22.0304 1948.00
22.0956 2049.00
22.1608 2023.00
22.226 2052.00
22.2912 2035.00
22.3564 2089.00
22.4216 2081.00
22.4868 2194.00
22.552 2385.00
22.6172 2492.00
22.6824 2871.00
22.7476 3929.00
22.8128 6271.00
22.878 11321.00
22.9432 18698.00
23.0084 17999.00
23.0736 8521.00
23.1388 3682.00
23.204 2665.00
23.2692 2386.00
23.3344 2232.00
23.3996 2264.00
23.4647 2164.00
23.5299 2194.00
23.5951 2176.00
23.6603 2167.00
23.7255 2151.00
23.7907 2117.00
23.8559 2191.00
23.9211 2325.00
23.9863 2669.00
24.0515 3787.00
24.1167 6693.00
24.1819 11900.00
24.2471 16304.00
24.3123 7908.00
24.3775 2766.00
24.4427 2278.00
24.5079 2214.00
24.5731 2110.00
24.6383 2066.00
24.7035 1969.00
24.7687 1888.00
24.8339 1930.00
24.8991 1924.00
24.9643 1921.00
25.0295 1854.00
25.0947 1923.00
25.1599 1949.00
25.2251 1914.00
25.2903 1949.00
25.3555 1788.00
25.4207 1973.00
25.4859 1965.00
25.5511 1840.00
25.6163 1861.00
25.6815 1925.00
25.7467 2051.00
25.8119 2002.00
25.8771 2125.00
25.9423 2152.00
26.0075 2141.00
26.0727 2056.00
26.1379 1926.00
26.2031 1926.00
26.2683 2030.00
26.3335 1825.00
26.3987 1998.00
26.4639 1844.00
26.5291 1838.00
26.5943 1800.00
26.6595 1838.00
26.7247 1828.00
26.7899 1900.00
26.8551 1832.00
26.9203 1855.00
26.9855 1839.00
27.0507 1775.00
27.1159 1793.00
27.1811 1807.00
27.2463 1869.00
27.3115 1809.00
27.3767 1895.00
27.4419 1760.00
27.5071 1803.00
27.5723 1884.00
27.6375 1872.00
27.7027 1886.00
27.7679 1923.00
27.8331 1970.00
27.8983 1863.00
27.9635 2044.00
28.0287 2165.00
28.0939 2080.00
28.1591 2209.00
28.2243 2272.00
28.2894 2423.00
28.3546 2662.00
28.4198 3096.00
28.485 4289.00
28.5502 6859.00
28.6154 11666.00
28.6806 16731.00
28.7458 15434.00
28.811 9944.00
28.8762 5900.00
28.9414 4068.00
29.0066 3741.00
29.0718 3677.00
29.137 4331.00
29.2022 5644.00
29.2674 7414.00
29.3326 7454.00
29.3978 5072.00
29.463 3349.00
29.5282 2696.00
29.5934 2393.00
29.6586 2218.00
29.7238 2136.00
29.789 2062.00
29.8542 2012.00
29.9194 2248.00
29.9846 2819.00
30.0498 3478.00
30.115 2686.00
30.1802 2084.00
30.2454 1939.00
30.3106 1793.00
30.3758 1903.00
30.441 1953.00
30.5062 1883.00
30.5714 1893.00
30.6366 1843.00
30.7018 2039.00
30.767 1943.00
30.8322 2149.00
30.8974 2715.00
30.9626 4652.00
31.0278 9018.00
31.093 13443.00
31.1582 7658.00
31.2234 3218.00
31.2886 2102.00
31.3538 1913.00
31.419 1855.00
31.4842 1820.00
31.5494 1614.00
31.6146 1750.00
31.6798 1667.00
31.745 1806.00
31.8102 1678.00
31.8754 1582.00
31.9406 1588.00
32.0058 1669.00
32.071 1688.00
32.1362 1649.00
32.2014 1635.00
32.2666 1748.00
32.3318 1564.00
32.397 1699.00
32.4622 1604.00
32.5274 1622.00
32.5926 1603.00
32.6578 1637.00
32.723 1553.00
32.7882 1732.00
32.8534 1696.00
32.9186 1694.00
32.9838 1817.00
33.0489 1850.00
33.1141 1918.00
33.1793 1998.00
33.2445 1789.00
33.3097 1752.00
33.3749 1723.00
33.4401 1653.00
33.5053 1676.00
33.5705 1595.00
33.6357 1617.00
33.7009 1604.00
33.7661 1612.00
33.8313 1585.00
33.8965 1619.00
33.9617 1589.00
34.0269 1548.00
34.0921 1674.00
34.1573 1780.00
34.2225 2095.00
34.2877 3217.00
34.3529 4902.00
34.4181 3437.00
34.4833 2342.00
34.5485 1668.00
34.6137 1669.00
34.6789 1624.00
34.7441 1652.00
34.8093 1698.00
34.8745 1782.00
34.9397 1639.00
35.0049 1716.00
35.0701 1569.00
35.1353 1524.00
35.2005 1498.00
35.2657 1550.00
35.3309 1517.00
35.3961 1628.00
35.4613 1710.00
35.5265 2173.00
35.5917 2534.00
35.6569 2030.00
35.7221 1785.00
35.7873 1639.00
35.8525 1582.00
35.9177 1580.00
35.9829 1463.00
36.0481 1646.00
36.1133 1578.00
36.1785 1627.00
36.2437 1595.00
36.3089 1647.00
36.3741 1672.00
36.4393 1572.00
36.5045 1747.00
36.5697 1721.00
36.6349 1983.00
36.7001 2300.00
36.7653 3614.00
36.8305 5722.00
36.8957 7784.00
36.9609 6929.00
37.0261 4923.00
37.0913 3364.00
37.1565 2680.00
37.2217 2621.00
37.2869 3157.00
37.3521 3971.00
37.4173 3906.00
37.4825 2966.00
37.5477 2156.00
37.6129 1721.00
37.6781 1631.00
37.7433 1608.00
37.8085 1466.00
37.8736 1494.00
37.9388 1490.00
38.004 1534.00
38.0692 1467.00
38.1344 1436.00
38.1996 1395.00
38.2648 1500.00
38.33 1493.00
38.3952 1553.00
38.4604 1784.00
38.5256 1972.00
38.5908 1772.00
38.656 1773.00
38.7212 2355.00
38.7864 3325.00
38.8516 2375.00
38.9168 2083.00
38.982 1571.00
39.0472 1498.00
39.1124 1428.00
39.1776 1398.00
39.2428 1513.00
39.308 1466.00
39.3732 1455.00
39.4384 1328.00
39.5036 1422.00
39.5688 1352.00
39.634 1378.00
39.6992 1328.00
39.7644 1413.00
39.8296 1378.00
39.8948 1397.00
39.96 1388.00
40.0252 1363.00
40.0904 1376.00
40.1556 1398.00
40.2208 1379.00
40.286 1432.00
40.3512 1452.00
40.4164 1422.00
40.4816 1332.00
40.5468 1371.00
40.612 1333.00
40.6772 1357.00
40.7424 1362.00
40.8076 1428.00
40.8728 1599.00
40.938 1817.00
41.0032 1898.00
41.0684 1703.00
41.1336 1435.00
41.1988 1397.00
41.264 1438.00
41.3292 1402.00
41.3944 1357.00
41.4596 1350.00
41.5248 1350.00
41.59 1367.00
41.6552 1304.00
41.7204 1384.00
41.7856 1341.00
41.8508 1287.00
41.916 1352.00
41.9812 1357.00
42.0464 1386.00
42.1116 1353.00
42.1768 1375.00
42.242 1335.00
42.3072 1318.00
42.3724 1340.00
42.4376 1372.00
42.5028 1411.00
42.568 1408.00
42.6332 1514.00
42.6983 1597.00
42.7635 1603.00
42.8287 1656.00
42.8939 1758.00
42.9591 1945.00
43.0243 1766.00
43.0895 1706.00
43.1547 1595.00
43.2199 1482.00
43.2851 1416.00
43.3503 1359.00
43.4155 1322.00
43.4807 1420.00
43.5459 1419.00
43.6111 1380.00
43.6763 1393.00
43.7415 1361.00
43.8067 1359.00
43.8719 1382.00
43.9371 1380.00
44.0023 1333.00
44.0675 1288.00
44.1327 1355.00
44.1979 1355.00
44.2631 1411.00
44.3283 1382.00
44.3935 1378.00
44.4587 1316.00
44.5239 1324.00
44.5891 1365.00
44.6543 1450.00
44.7195 1455.00
44.7847 1512.00
44.8499 1607.00
44.9151 1535.00
44.9803 1520.00
45.0455 1526.00
45.1107 1534.00
45.1759 1598.00
45.2411 1745.00
45.3063 1962.00
45.3715 2229.00
45.4367 2224.00
45.5019 2055.00
45.5671 1842.00
45.6323 1579.00
45.6975 1565.00
45.7627 1466.00
45.8279 1451.00
45.8931 1490.00
45.9583 1713.00
46.0235 2260.00
46.0887 3123.00
46.1539 2388.00
46.2191 2582.00
46.2843 2209.00
46.3495 2459.00
46.4147 3854.00
46.4799 5478.00
46.5451 4454.00
46.6103 4061.00
46.6755 3317.00
46.7407 4684.00
46.8059 8232.00
46.8711 4517.00
46.9363 4659.00
47.0015 2044.00
47.0667 1646.00
47.1319 1612.00
47.1971 1509.00
47.2623 1343.00
47.3275 1467.00
47.3927 1426.00
47.4579 1377.00
47.523 1378.00
47.5882 1357.00
47.6534 1412.00
47.7186 1435.00
47.7838 1484.00
47.849 1397.00
47.9142 1545.00
47.9794 1844.00
48.0446 1648.00
48.1098 1646.00
48.175 1419.00
48.2402 1459.00
48.3054 1473.00
48.3706 1439.00
48.4358 1469.00
48.501 1437.00
48.5662 1434.00
48.6314 1427.00
48.6966 1519.00
48.7618 1558.00
48.827 1503.00
48.8922 1536.00
48.9574 1554.00
49.0226 1565.00
49.0878 1661.00
49.153 1741.00
49.2182 1712.00
49.2834 1704.00
49.3486 1589.00
49.4138 1533.00
49.479 1692.00
49.5442 1697.00
49.6094 1789.00
49.6746 1776.00
49.7398 1684.00
49.805 1683.00
49.8702 1734.00
49.9354 1857.00
50.0006 2267.00
50.0658 3064.00
50.131 3247.00
50.1962 2937.00
50.2614 2711.00
50.3266 2206.00
50.3918 1779.00
50.457 1713.00
50.5222 1623.00
50.5874 1616.00
50.6526 1495.00
50.7178 1600.00
50.783 1694.00
50.8482 1745.00
50.9134 1793.00
50.9786 1969.00
51.0438 2231.00
51.109 2752.00
51.1742 3208.00
51.2394 3912.00
51.3046 3868.00
51.3698 3208.00
51.435 2702.00
51.5002 2112.00
51.5654 1858.00
51.6306 1755.00
51.6958 1657.00
51.761 1569.00
51.8262 1567.00
51.8914 1552.00
51.9566 1457.00
52.0218 1469.00
52.087 1428.00
52.1522 1433.00
52.2174 1267.00
52.2826 1371.00
52.3477 1402.00
52.4129 1406.00
52.4781 1493.00
52.5433 1472.00
52.6085 1475.00
52.6737 1516.00
52.7389 1459.00
52.8041 1368.00
52.8693 1365.00
52.9345 1340.00
52.9997 1473.00
53.0649 1507.00
53.1301 1452.00
53.1953 1456.00
53.2605 1476.00
53.3257 1461.00
53.3909 1423.00
53.4561 1450.00
53.5213 1400.00
53.5865 1316.00
53.6517 1411.00
53.7169 1345.00
53.7821 1404.00
53.8473 1451.00
53.9125 1373.00
53.9777 1477.00
54.0429 1396.00
54.1081 1468.00
54.1733 1524.00
54.2385 1594.00
54.3037 1581.00
54.3689 1483.00
54.4341 1511.00
54.4993 1491.00
54.5645 1406.00
54.6297 1374.00
54.6949 1387.00
54.7601 1394.00
54.8253 1474.00
54.8905 1402.00
54.9557 1501.00
55.0209 1585.00
55.0861 1637.00
55.1513 1791.00
55.2165 2228.00
55.2817 3141.00
55.3469 5004.00
55.4121 4961.00
55.4773 4114.00
55.5425 4399.00
55.6077 3800.00
55.6729 3942.00
55.7381 3767.00
55.8033 3248.00
55.8685 2736.00
55.9337 2248.00
55.9989 1942.00
56.0641 1793.00
56.1293 1643.00
56.1945 1702.00
56.2597 1670.00
56.3249 1596.00
56.3901 1628.00
56.4553 1730.00
56.5205 1920.00
56.5857 2149.00
56.6509 2584.00
56.7161 2872.00
56.7813 2641.00
56.8465 2298.00
56.9117 1977.00
56.9769 1697.00
57.042 1591.00
57.1073 1408.00
57.1724 1444.00
57.2376 1408.00
57.3028 1434.00
57.368 1477.00
57.4332 1383.00
57.4984 1400.00
57.5636 1430.00
57.6288 1371.00
57.694 1254.00
57.7592 1428.00
57.8244 1419.00
57.8896 1432.00
57.9548 1429.00
58.02 1363.00
58.0852 1400.00
58.1504 1372.00
58.2156 1377.00
58.2808 1393.00
58.346 1437.00
58.4112 1438.00
58.4764 1393.00
58.5416 1505.00
58.6068 1720.00
58.672 2336.00
58.7372 2263.00
58.8024 2283.00
58.8676 2758.00
58.9328 2461.00
58.998 2489.00
59.0632 2639.00
59.1284 3001.00
59.1936 2248.00
59.2588 2238.00
59.324 1945.00
59.3892 1499.00
59.4544 1470.00
59.5196 1517.00
59.5848 1381.00
59.65 1434.00
59.7152 1351.00
59.7804 1368.00
59.8456 1405.00
59.9108 1430.00
59.976 1482.00
60.0412 1518.00
60.1064 1708.00
60.1716 1742.00
60.2368 1755.00
60.302 1860.00
60.3672 1694.00
60.4324 1593.00
60.4976 1561.00
60.5628 1471.00
60.628 1468.00
60.6932 1339.00
60.7584 1381.00
60.8236 1271.00
60.8888 1386.00
60.954 1376.00
61.0192 1314.00
61.0844 1360.00
61.1496 1449.00
61.2148 1442.00
61.28 1468.00
61.3452 1382.00
61.4104 1335.00
61.4756 1393.00
61.5408 1321.00
61.606 1405.00
61.6712 1284.00
61.7364 1345.00
61.8016 1355.00
61.8667 1381.00
61.932 1432.00
61.9971 1397.00
62.0623 1404.00
62.1275 1395.00
62.1927 1342.00
62.2579 1374.00
62.3231 1392.00
62.3883 1458.00
62.4535 1434.00
62.5187 1456.00
62.5839 1424.00
62.6491 1392.00
62.7143 1363.00
62.7795 1282.00
62.8447 1292.00
62.9099 1311.00
62.9751 1267.00
63.0403 1321.00
63.1055 1382.00
63.1707 1307.00
63.2359 1312.00
63.3011 1329.00
63.3663 1383.00
63.4315 1419.00
63.4967 1493.00
63.5619 1533.00
63.6271 1590.00
63.6923 1629.00
63.7575 1735.00
63.8227 1911.00
63.8879 2251.00
63.9531 2369.00
64.0183 2137.00
64.0835 2221.00
64.1487 2150.00
64.2139 2200.00
64.2791 2614.00
64.3443 1819.00
64.4095 1742.00
64.4747 2055.00
64.5399 1558.00
64.6051 1452.00
64.6703 1411.00
64.7355 1380.00
64.8007 1372.00
64.8659 1362.00
64.9311 1364.00
64.9963 1360.00
65.0615 1432.00
65.1267 1441.00
65.1919 1463.00
65.2571 1522.00
65.3223 1500.00
65.3875 1462.00
65.4527 1369.00
65.5179 1361.00
65.5831 1317.00
65.6483 1407.00
65.7135 1311.00
65.7787 1327.00
65.8439 1396.00
65.9091 1376.00
65.9743 1348.00
66.0395 1339.00
66.1047 1366.00
66.1699 1365.00
66.2351 1461.00
66.3003 1423.00
66.3655 1378.00
66.4307 1432.00
66.4959 1418.00
66.561 1341.00
66.6263 1303.00
66.6915 1386.00
66.7566 1348.00
66.8218 1380.00
66.887 1391.00
66.9522 1406.00
67.0174 1492.00
67.0826 1388.00
67.1478 1389.00
67.213 1460.00
67.2782 1353.00
67.3434 1427.00
67.4086 1470.00
67.4738 1372.00
67.539 1375.00
67.6042 1363.00
67.6694 1369.00
67.7346 1359.00
67.7998 1298.00
67.865 1324.00
67.9302 1315.00
67.9954 1393.00
68.0606 1345.00
68.1258 1290.00
68.191 1364.00
68.2562 1305.00
68.3214 1296.00
68.3866 1354.00
68.4518 1249.00
68.517 1340.00
68.5822 1314.00
68.6474 1317.00
68.7126 1402.00
68.7778 1328.00
68.843 1330.00
68.9082 1374.00
68.9734 1273.00
69.0386 1365.00
69.1038 1380.00
69.169 1323.00
69.2342 1313.00
69.2994 1230.00
69.3646 1364.00
69.4298 1452.00
69.495 1260.00
69.5602 1345.00
69.6254 1216.00
69.6906 1404.00
69.7558 1320.00
69.821 1344.00
69.8862 1485.00
69.9514 1978.00
70.0166 2384.00
70.0818 1621.00
70.147 1673.00
70.2122 1840.00
70.2774 1453.00
70.3426 1505.00
70.4078 1694.00
70.473 1783.00
70.5382 1899.00
70.6034 1698.00
70.6686 1737.00
70.7338 1651.00
70.799 1623.00
70.8642 1475.00
70.9294 1392.00
70.9946 1501.00
71.0598 1378.00
71.125 1515.00
71.1902 1489.00
71.2554 1639.00
71.3205 1938.00
71.3858 2037.00
71.451 2286.00
71.5162 2006.00
71.5813 1926.00
71.6465 1834.00
71.7117 1648.00
71.7769 1644.00
71.8421 1702.00
71.9073 1454.00
71.9725 1349.00
72.0377 1403.00
72.1029 1360.00
72.1681 1369.00
72.2333 1348.00
72.2985 1461.00
72.3637 1367.00
72.4289 1307.00
72.4941 1355.00
72.5593 1356.00
72.6245 1280.00
72.6897 1223.00
72.7549 1294.00
72.8201 1208.00
72.8853 1187.00
72.9505 1250.00
73.0157 1253.00
73.0809 1263.00
73.1461 1195.00
73.2113 1155.00
73.2765 1157.00
73.3417 1152.00
73.4069 1212.00
73.4721 1280.00
73.5373 1210.00
73.6025 1221.00
73.6677 1190.00
73.7329 1266.00
73.7981 1260.00
73.8633 1257.00
73.9285 1281.00
73.9937 1225.00
74.0589 1228.00
74.1241 1248.00
74.1893 1295.00
74.2545 1276.00
74.3197 1340.00
74.3849 1326.00
74.4501 1324.00
74.5153 1277.00
74.5805 1287.00
74.6457 1503.00
74.7109 1960.00
74.7761 2042.00
74.8413 1467.00
74.9065 1487.00
74.9717 1733.00
75.0369 1353.00
75.1021 1323.00
75.1673 1267.00
75.2325 1262.00
75.2977 1231.00
75.3629 1273.00
75.4281 1233.00
75.4933 1200.00
75.5585 1198.00
75.6237 1252.00
75.6889 1212.00
75.7541 1247.00
75.8193 1239.00
75.8845 1193.00
75.9497 1261.00
76.0149 1250.00
76.0801 1298.00
76.1452 1262.00
76.2104 1201.00
76.2756 1192.00
76.3409 1286.00
76.406 1266.00
76.4712 1166.00
76.5364 1278.00
76.6016 1276.00
76.6668 1257.00
76.732 1347.00
76.7972 1246.00
76.8624 1398.00
76.9276 1419.00
76.9928 1282.00
77.058 1349.00
77.1232 1343.00
77.1884 1349.00
77.2536 1290.00
77.3188 1256.00
77.384 1262.00
77.4492 1226.00
77.5144 1299.00
77.5796 1305.00
77.6448 1342.00
77.71 1360.00
77.7752 1488.00
77.8404 1503.00
77.9056 1672.00
77.9708 1692.00
78.036 1702.00
78.1012 1641.00
78.1664 1582.00
78.2316 1452.00
78.2968 1504.00
78.362 1413.00
78.4272 1304.00
78.4924 1331.00
78.5576 1382.00
78.6228 1328.00
78.688 1402.00
78.7532 1326.00
78.8184 1377.00
78.8836 1392.00
78.9488 1334.00
79.014 1336.00
79.0792 1383.00
79.1444 1505.00
79.2096 1455.00
79.2748 1451.00
79.34 1533.00
79.4052 1551.00
79.4704 1490.00
79.5356 1465.00
79.6008 1518.00
79.666 1620.00
79.7312 2047.00
79.7964 1866.00
79.8616 1577.00
79.9268 1630.00
79.992 1737.00
80.0572 1781.00
80.1224 2035.00
80.1876 1712.00
80.2528 1519.00
80.318 1665.00
80.3832 1817.00
80.4484 1644.00
80.5136 1503.00
80.5788 1458.00
80.644 1366.00
80.7092 1398.00
80.7744 1348.00
80.8396 1404.00
80.9048 1296.00
80.9699 1266.00
81.0351 1305.00
81.1003 1222.00
81.1655 1324.00
81.2307 1319.00
81.2959 1320.00
81.3611 1237.00
81.4263 1280.00
81.4915 1378.00
81.5567 1282.00
81.6219 1305.00
81.6871 1340.00
81.7523 1341.00
81.8175 1493.00
81.8827 1766.00
81.9479 1689.00
82.0131 1413.00
82.0783 1414.00
82.1435 1539.00
82.2087 1408.00
82.2739 1288.00
82.3391 1323.00
82.4043 1207.00
82.4695 1322.00
82.5347 1292.00
82.5999 1415.00
82.6651 1335.00
82.7303 1276.00
82.7955 1382.00
82.8607 1365.00
82.9259 1283.00
82.9911 1246.00
83.0563 1244.00
83.1215 1338.00
83.1867 1336.00
83.2519 1224.00
83.3171 1255.00
83.3823 1240.00
83.4475 1171.00
83.5127 1220.00
83.5779 1242.00
83.6431 1288.00
83.7083 1193.00
83.7735 1150.00
83.8387 1263.00
83.9039 1215.00
83.9691 1194.00
84.0343 1249.00
84.0995 1208.00
84.1647 1216.00
84.2299 1235.00
84.2951 1207.00
84.3603 1230.00
84.4255 1276.00
84.4907 1194.00
84.5559 1268.00
84.6211 1289.00
84.6863 1292.00
84.7515 1405.00
84.8167 1398.00
84.8819 1469.00
84.9471 1405.00
85.0123 1464.00
85.0775 1390.00
85.1427 1418.00
85.2079 1352.00
85.2731 1245.00
85.3383 1287.00
85.4035 1213.00
85.4687 1205.00
85.5339 1242.00
85.5991 1222.00
85.6643 1412.00
85.7295 1471.00
85.7946 1252.00
85.8598 1205.00
85.925 1263.00
85.9903 1291.00
86.0554 1299.00
86.1206 1284.00
86.1858 1370.00
86.251 1356.00
86.3162 1234.00
86.3814 1335.00
86.4466 1343.00
86.5118 1276.00
86.577 1205.00
86.6422 1214.00
86.7074 1216.00
86.7726 1246.00
86.8378 1214.00
86.903 1197.00
86.9682 1245.00
87.0334 1257.00
87.0986 1231.00
87.1638 1253.00
87.229 1220.00
87.2942 1227.00
87.3594 1213.00
87.4246 1238.00
87.4898 1275.00
87.555 1198.00
87.6202 1235.00
87.6854 1192.00
87.7506 1150.00
87.8158 1148.00
87.881 1221.00
87.9462 1150.00
88.0114 1239.00
88.0766 1212.00
88.1418 1220.00
88.207 1185.00
88.2722 1141.00
88.3374 1232.00
88.4026 1194.00
88.4678 1182.00
88.533 1218.00
88.5982 1136.00
88.6634 1170.00
88.7286 1203.00
88.7938 1212.00
88.859 1130.00
88.9242 1177.00
88.9894 1144.00
89.0546 1202.00
89.1198 1135.00
89.185 1142.00
89.2502 1094.00
89.3154 1256.00
89.3806 1213.00
89.4458 1234.00
89.511 1275.00
89.5762 1286.00
89.6414 1171.00
89.7066 1175.00
89.7718 1209.00
89.837 1181.00
89.9022 1201.00
89.9674 1236.00
90.0326 1183.00
90.0978 1203.00
90.163 1145.00
90.2282 1178.00
90.2934 1164.00
90.3586 1245.00
90.4238 1219.00
90.489 1190.00
90.5542 1156.00
90.6193 1224.00
90.6845 1216.00
90.7497 1289.00
90.8149 1255.00
90.8801 1208.00
90.9453 1204.00
91.0105 1257.00
91.0757 1237.00
91.1409 1310.00
91.2061 1250.00
91.2713 1222.00
91.3365 1179.00
91.4017 1246.00
91.4669 1238.00
91.5321 1131.00
91.5973 1290.00
91.6625 1230.00
91.7277 1230.00
91.7929 1116.00
91.8581 1140.00
91.9233 1144.00
91.9885 1210.00
92.0537 1091.00
92.1189 1182.00
92.1841 1119.00
92.2493 1163.00
92.3145 1193.00
92.3797 1216.00
92.4449 1187.00
92.5101 1105.00
92.5753 1191.00
92.6405 1160.00
92.7057 1260.00
92.7709 1264.00
92.8361 1268.00
92.9013 1250.00
92.9665 1264.00
93.0317 1236.00
93.0969 1230.00
93.1621 1324.00
93.2273 1213.00
93.2925 1272.00
93.3577 1249.00
93.4229 1206.00
93.4881 1321.00
93.5533 1225.00
93.6185 1292.00
93.6837 1292.00
93.7489 1363.00
93.8141 1270.00
93.8793 1311.00
93.9445 1220.00
94.0097 1299.00
94.0749 1230.00
94.1401 1284.00
94.2053 1249.00
94.2705 1219.00
94.3357 1243.00
94.4009 1246.00
94.4661 1436.00
94.5313 1287.00
94.5965 1350.00
94.6617 1253.00
94.7269 1308.00
94.7921 1422.00
94.8573 1377.00
94.9225 1298.00
94.9877 1340.00
95.0529 1306.00
95.1181 1262.00
95.1833 1269.00
95.2485 1316.00
95.3137 1276.00
95.3789 1257.00
95.444 1534.00
95.5092 1617.00
95.5744 1378.00
95.6396 1312.00
95.7048 1273.00
95.77 1330.00
95.8352 1403.00
95.9004 1336.00
95.9656 1314.00
96.0308 1289.00
96.096 1148.00
96.1612 1249.00
96.2264 1288.00
96.2916 1239.00
96.3568 1317.00
96.422 1376.00
96.4872 1362.00
96.5524 1377.00
96.6176 1409.00
96.6828 1308.00
96.748 1255.00
96.8132 1283.00
96.8784 1357.00
96.9436 1364.00
97.0088 1285.00
97.074 1273.00
97.1392 1249.00
97.2044 1237.00
97.2696 1246.00
97.3348 1257.00
97.4 1251.00
97.4652 1247.00
97.5304 1209.00
97.5956 1272.00
97.6608 1241.00
97.726 1240.00
97.7912 1214.00
97.8564 1207.00
97.9216 1368.00
97.9868 1381.00
98.052 1370.00
98.1172 1351.00
98.1824 1311.00
98.2476 1278.00
98.3128 1334.00
98.378 1257.00
98.4432 1343.00
98.5084 1335.00
98.5736 1320.00
98.6388 1231.00
98.704 1222.00
98.7692 1215.00
98.8344 1238.00
98.8996 1213.00
98.9648 1265.00
99.03 1357.00
99.0952 1322.00
99.1604 1355.00
99.2256 1311.00
99.2908 1378.00
99.356 1479.00
99.4212 1545.00
99.4864 1417.00
99.5516 1317.00
99.6168 1418.00
99.682 1486.00
99.7472 1917.00
99.8124 1608.00
99.8776 1379.00
99.9428 1422.00
100.008 1450.00
100.073 1529.00
100.095 1571.00