File: data/xrd_creation/results/PG_2734-1.xy
9.903433 4203.00
9.968632 4029.00
10.0338 4120.00
10.099 4024.00
10.1642 4240.00
10.2294 3878.00
10.2946 4206.00
10.3598 4051.00
10.425 3958.00
10.4902 4096.00
10.5554 4108.00
10.6206 3882.00
10.6858 4151.00
10.751 3962.00
10.8162 4015.00
10.8814 3977.00
10.9466 4184.00
11.0118 3962.00
11.077 3880.00
11.1422 4020.00
11.2074 3925.00
11.2726 3857.00
11.3378 3978.00
11.403 3996.00
11.4682 3925.00
11.5334 3848.00
11.5986 3952.00
11.6638 3858.00
11.729 3893.00
11.7942 3907.00
11.8594 3940.00
11.9246 3929.00
11.9898 3900.00
12.055 3724.00
12.1202 3812.00
12.1854 3754.00
12.2506 3778.00
12.3158 3910.00
12.381 3784.00
12.4462 3803.00
12.5114 3747.00
12.5766 3789.00
12.6418 3749.00
12.707 3814.00
12.7722 3736.00
12.8374 3729.00
12.9026 3932.00
12.9678 3861.00
13.033 3817.00
13.0982 3862.00
13.1634 3699.00
13.2286 3749.00
13.2938 3824.00
13.359 3721.00
13.4242 3858.00
13.4894 3841.00
13.5546 3766.00
13.6198 3726.00
13.685 3912.00
13.7502 3750.00
13.8154 3717.00
13.8805 3720.00
13.9457 3724.00
14.0109 3791.00
14.0761 3708.00
14.1413 3689.00
14.2065 3776.00
14.2717 3754.00
14.3369 3732.00
14.4021 3750.00
14.4673 3788.00
14.5325 3816.00
14.5977 3717.00
14.6629 3741.00
14.7281 3757.00
14.7933 3670.00
14.8585 3655.00
14.9237 3866.00
14.9889 3736.00
15.0541 3735.00
15.1193 3618.00
15.1845 3673.00
15.2497 3796.00
15.3149 3798.00
15.3801 3782.00
15.4453 3786.00
15.5105 3736.00
15.5757 3696.00
15.6409 3662.00
15.7061 3717.00
15.7713 3820.00
15.8365 3751.00
15.9017 3822.00
15.9669 3805.00
16.0321 3873.00
16.0973 3808.00
16.1625 3782.00
16.2277 3720.00
16.2929 3741.00
16.3581 3783.00
16.4233 3814.00
16.4885 3768.00
16.5537 3903.00
16.6189 3785.00
16.6841 4010.00
16.7493 4042.00
16.8145 4522.00
16.8797 5145.00
16.9449 5975.00
17.0101 5954.00
17.0753 4225.00
17.1405 3690.00
17.2057 3802.00
17.2709 3931.00
17.3361 3927.00
17.4013 3733.00
17.4665 3646.00
17.5317 3613.00
17.5969 3701.00
17.6621 3860.00
17.7273 3866.00
17.7925 3806.00
17.8577 3716.00
17.9229 3765.00
17.9881 3796.00
18.0533 3784.00
18.1185 4042.00
18.1837 4315.00
18.2489 4682.00
18.3141 5307.00
18.3793 4971.00
18.4445 4210.00
18.5097 3925.00
18.5749 3728.00
18.6401 3796.00
18.7052 3853.00
18.7704 3648.00
18.8356 3583.00
18.9008 3684.00
18.966 3653.00
19.0312 3709.00
19.0964 3655.00
19.1616 3644.00
19.2268 3608.00
19.292 3654.00
19.3572 3619.00
19.4224 3626.00
19.4876 3593.00
19.5528 3674.00
19.618 3625.00
19.6832 3567.00
19.7484 3728.00
19.8136 3700.00
19.8788 3671.00
19.944 3630.00
20.0092 3605.00
20.0744 3613.00
20.1396 3564.00
20.2048 3590.00
20.27 3607.00
20.3352 3666.00
20.4004 3623.00
20.4656 3605.00
20.5308 3663.00
20.596 3667.00
20.6612 3668.00
20.7264 3502.00
20.7916 3574.00
20.8568 3544.00
20.922 3627.00
20.9872 3531.00
21.0524 3615.00
21.1176 3593.00
21.1828 3641.00
21.248 3669.00
21.3132 3602.00
21.3784 3568.00
21.4436 3516.00
21.5088 3483.00
21.574 3589.00
21.6392 3578.00
21.7044 3552.00
21.7696 3585.00
21.8348 3479.00
21.9 3484.00
21.9652 3485.00
22.0304 3453.00
22.0956 3574.00
22.1608 3488.00
22.226 3606.00
22.2912 3486.00
22.3564 3516.00
22.4216 3596.00
22.4868 3471.00
22.552 3557.00
22.6172 3693.00
22.6824 3635.00
22.7476 3518.00
22.8128 3542.00
22.878 3600.00
22.9432 3576.00
23.0084 3457.00
23.0736 3532.00
23.1388 3511.00
23.204 3637.00
23.2692 3550.00
23.3344 3477.00
23.3996 3483.00
23.4647 3596.00
23.5299 3464.00
23.5951 3437.00
23.6603 3545.00
23.7255 3611.00
23.7907 3647.00
23.8559 3822.00
23.9211 4392.00
23.9863 5130.00
24.0515 5931.00
24.1167 4562.00
24.1819 3621.00
24.2471 3565.00
24.3123 3536.00
24.3775 3576.00
24.4427 3511.00
24.5079 3511.00
24.5731 3559.00
24.6383 3530.00
24.7035 3536.00
24.7687 3567.00
24.8339 3478.00
24.8991 3471.00
24.9643 3533.00
25.0295 3543.00
25.0947 3503.00
25.1599 3526.00
25.2251 3390.00
25.2903 3500.00
25.3555 3483.00
25.4207 3403.00
25.4859 3415.00
25.5511 3422.00
25.6163 3478.00
25.6815 3398.00
25.7467 3461.00
25.8119 3466.00
25.8771 3492.00
25.9423 3295.00
26.0075 3466.00
26.0727 3489.00
26.1379 3524.00
26.2031 3360.00
26.2683 3482.00
26.3335 3481.00
26.3987 3410.00
26.4639 3428.00
26.5291 3391.00
26.5943 3416.00
26.6595 3441.00
26.7247 3452.00
26.7899 3429.00
26.8551 3497.00
26.9203 3468.00
26.9855 3422.00
27.0507 3417.00
27.1159 3466.00
27.1811 3437.00
27.2463 3405.00
27.3115 3472.00
27.3767 3499.00
27.4419 3530.00
27.5071 3512.00
27.5723 3490.00
27.6375 3402.00
27.7027 3344.00
27.7679 3365.00
27.8331 3557.00
27.8983 3486.00
27.9635 3518.00
28.0287 3370.00
28.0939 3487.00
28.1591 3443.00
28.2243 3449.00
28.2894 3493.00
28.3546 3399.00
28.4198 3454.00
28.485 3582.00
28.5502 3520.00
28.6154 3359.00
28.6806 3503.00
28.7458 3511.00
28.811 3600.00
28.8762 3639.00
28.9414 3624.00
29.0066 3927.00
29.0718 4623.00
29.137 5627.00
29.2022 6725.00
29.2674 7121.00
29.3326 7602.00
29.3978 6126.00
29.463 4850.00
29.5282 4027.00
29.5934 3644.00
29.6586 3431.00
29.7238 3369.00
29.789 3375.00
29.8542 3372.00
29.9194 3507.00
29.9846 3439.00
30.0498 3444.00
30.115 3410.00
30.1802 3380.00
30.2454 3375.00
30.3106 3372.00
30.3758 3405.00
30.441 3456.00
30.5062 3339.00
30.5714 3330.00
30.6366 3325.00
30.7018 3432.00
30.767 3400.00
30.8322 3358.00
30.8974 3412.00
30.9626 3358.00
31.0278 3445.00
31.093 3534.00
31.1582 3605.00
31.2234 3734.00
31.2886 4433.00
31.3538 4618.00
31.419 4244.00
31.4842 3776.00
31.5494 3599.00
31.6146 3485.00
31.6798 3404.00
31.745 3365.00
31.8102 3448.00
31.8754 3455.00
31.9406 3394.00
32.0058 3438.00
32.071 3430.00
32.1362 3496.00
32.2014 3474.00
32.2666 3533.00
32.3318 3590.00
32.397 4054.00
32.4622 4669.00
32.5274 6229.00
32.5926 8291.00
32.6578 8507.00
32.723 7033.00
32.7882 5154.00
32.8534 4096.00
32.9186 3764.00
32.9838 3645.00
33.0489 3529.00
33.1141 3451.00
33.1793 3404.00
33.2445 3487.00
33.3097 3318.00
33.3749 3411.00
33.4401 3209.00
33.5053 3316.00
33.5705 3326.00
33.6357 3400.00
33.7009 3219.00
33.7661 3309.00
33.8313 3394.00
33.8965 3405.00
33.9617 3735.00
34.0269 3808.00
34.0921 3740.00
34.1573 3495.00
34.2225 3506.00
34.2877 3214.00
34.3529 3389.00
34.4181 3271.00
34.4833 3382.00
34.5485 3295.00
34.6137 3294.00
34.6789 3253.00
34.7441 3255.00
34.8093 3408.00
34.8745 3282.00
34.9397 3374.00
35.0049 3239.00
35.0701 3343.00
35.1353 3240.00
35.2005 3314.00
35.2657 3307.00
35.3309 3479.00
35.3961 3227.00
35.4613 3194.00
35.5265 3238.00
35.5917 3286.00
35.6569 3434.00
35.7221 3297.00
35.7873 3350.00
35.8525 3412.00
35.9177 3430.00
35.9829 3493.00
36.0481 3669.00
36.1133 3690.00
36.1785 4115.00
36.2437 4931.00
36.3089 6906.00
36.3741 10006.00
36.4393 10530.00
36.5045 8224.00
36.5697 5817.00
36.6349 4532.00
36.7001 4399.00
36.7653 4440.00
36.8305 4367.00
36.8957 3901.00
36.9609 3611.00
37.0261 3362.00
37.0913 3391.00
37.1565 3327.00
37.2217 3279.00
37.2869 3325.00
37.3521 3288.00
37.4173 3242.00
37.4825 3368.00
37.5477 3231.00
37.6129 3208.00
37.6781 3264.00
37.7433 3218.00
37.8085 3306.00
37.8736 3357.00
37.9388 3273.00
38.004 3358.00
38.0692 3440.00
38.1344 3804.00
38.1996 4315.00
38.2648 4590.00
38.33 4497.00
38.3952 4118.00
38.4604 3589.00
38.5256 3382.00
38.5908 3380.00
38.656 3272.00
38.7212 3224.00
38.7864 3304.00
38.8516 3221.00
38.9168 3291.00
38.982 3166.00
39.0472 3197.00
39.1124 3153.00
39.1776 3122.00
39.2428 3243.00
39.308 3182.00
39.3732 3176.00
39.4384 3098.00
39.5036 3148.00
39.5688 3188.00
39.634 3224.00
39.6992 3350.00
39.7644 3072.00
39.8296 3219.00
39.8948 3284.00
39.96 3184.00
40.0252 3294.00
40.0904 3174.00
40.1556 3162.00
40.2208 3175.00
40.286 3135.00
40.3512 3166.00
40.4164 3198.00
40.4816 3145.00
40.5468 3153.00
40.612 3201.00
40.6772 3198.00
40.7424 3081.00
40.8076 3169.00
40.8728 3197.00
40.938 3079.00
41.0032 3202.00
41.0684 3187.00
41.1336 3127.00
41.1988 3056.00
41.264 3125.00
41.3292 3275.00
41.3944 3063.00
41.4596 3195.00
41.5248 3105.00
41.59 3194.00
41.6552 3204.00
41.7204 3085.00
41.7856 3165.00
41.8508 3164.00
41.916 3198.00
41.9812 3162.00
42.0464 3305.00
42.1116 3173.00
42.1768 3107.00
42.242 3189.00
42.3072 3164.00
42.3724 3075.00
42.4376 3312.00
42.5028 3141.00
42.568 3173.00
42.6332 3181.00
42.6983 3170.00
42.7635 3120.00
42.8287 3089.00
42.8939 3108.00
42.9591 3190.00
43.0243 3049.00
43.0895 3212.00
43.1547 3200.00
43.2199 3181.00
43.2851 3195.00
43.3503 3096.00
43.4155 3102.00
43.4807 3100.00
43.5459 3156.00
43.6111 3079.00
43.6763 3097.00
43.7415 3228.00
43.8067 3233.00
43.8719 3199.00
43.9371 3117.00
44.0023 3215.00
44.0675 3168.00
44.1327 3076.00
44.1979 3178.00
44.2631 3114.00
44.3283 3225.00
44.3935 3198.00
44.4587 3209.00
44.5239 3440.00
44.5891 3578.00
44.6543 4162.00
44.7195 4661.00
44.7847 4525.00
44.8499 4286.00
44.9151 3887.00
44.9803 3366.00
45.0455 3195.00
45.1107 3232.00
45.1759 3320.00
45.2411 3340.00
45.3063 3517.00
45.3715 3998.00
45.4367 4415.00
45.5019 4026.00
45.5671 3638.00
45.6323 3292.00
45.6975 3210.00
45.7627 3222.00
45.8279 3145.00
45.8931 3090.00
45.9583 3144.00
46.0235 3215.00
46.0887 3148.00
46.1539 3156.00
46.2191 3087.00
46.2843 3019.00
46.3495 3026.00
46.4147 3103.00
46.4799 3110.00
46.5451 3056.00
46.6103 3097.00
46.6755 3061.00
46.7407 3194.00
46.8059 3111.00
46.8711 3161.00
46.9363 3047.00
47.0015 3146.00
47.0667 3069.00
47.1319 3171.00
47.1971 3120.00
47.2623 3167.00
47.3275 3067.00
47.3927 3156.00
47.4579 3145.00
47.523 3123.00
47.5882 3190.00
47.6534 3017.00
47.7186 3148.00
47.7838 3213.00
47.849 3068.00
47.9142 3138.00
47.9794 3032.00
48.0446 3170.00
48.1098 3001.00
48.175 3100.00
48.2402 3117.00
48.3054 3135.00
48.3706 3158.00
48.4358 3140.00
48.501 3023.00
48.5662 3027.00
48.6314 3039.00
48.6966 3176.00
48.7618 3136.00
48.827 3019.00
48.8922 3121.00
48.9574 3223.00
49.0226 3188.00
49.0878 3071.00
49.153 3103.00
49.2182 3045.00
49.2834 3043.00
49.3486 3125.00
49.4138 3160.00
49.479 3117.00
49.5442 3138.00
49.6094 3112.00
49.6746 3126.00
49.7398 3226.00
49.805 3113.00
49.8702 3140.00
49.9354 3139.00
50.0006 3349.00
50.0658 3525.00
50.131 3575.00
50.1962 3442.00
50.2614 3371.00
50.3266 3311.00
50.3918 3128.00
50.457 3139.00
50.5222 3184.00
50.5874 3190.00
50.6526 3135.00
50.7178 3282.00
50.783 3390.00
50.8482 3566.00
50.9134 4138.00
50.9786 4389.00
51.0438 4405.00
51.109 4156.00
51.1742 3733.00
51.2394 3556.00
51.3046 3390.00
51.3698 3205.00
51.435 3163.00
51.5002 3180.00
51.5654 3255.00
51.6306 3170.00
51.6958 3259.00
51.761 3359.00
51.8262 3175.00
51.8914 3161.00
51.9566 3236.00
52.0218 3081.00
52.087 3066.00
52.1522 3140.00
52.2174 3094.00
52.2826 3107.00
52.3477 3063.00
52.4129 3092.00
52.4781 3070.00
52.5433 3173.00
52.6085 3121.00
52.6737 3068.00
52.7389 3080.00
52.8041 3067.00
52.8693 3103.00
52.9345 3153.00
52.9997 3018.00
53.0649 3118.00
53.1301 3145.00
53.1953 3168.00
53.2605 3129.00
53.3257 3108.00
53.3909 3082.00
53.4561 2990.00
53.5213 3037.00
53.5865 3112.00
53.6517 3091.00
53.7169 3131.00
53.7821 3164.00
53.8473 3150.00
53.9125 3192.00
53.9777 3174.00
54.0429 3348.00
54.1081 3679.00
54.1733 3808.00
54.2385 3713.00
54.3037 3369.00
54.3689 3295.00
54.4341 3214.00
54.4993 3231.00
54.5645 3172.00
54.6297 3288.00
54.6949 3201.00
54.7601 3108.00
54.8253 3017.00
54.8905 3113.00
54.9557 3277.00
55.0209 3177.00
55.0861 3204.00
55.1513 3181.00
55.2165 3026.00
55.2817 3112.00
55.3469 3098.00
55.4121 3081.00
55.4773 3069.00
55.5425 3079.00
55.6077 3007.00
55.6729 3127.00
55.7381 3189.00
55.8033 3144.00
55.8685 3031.00
55.9337 3236.00
55.9989 3113.00
56.0641 3166.00
56.1293 3258.00
56.1945 3426.00
56.2597 3613.00
56.3249 3517.00
56.3901 3540.00
56.4553 3340.00
56.5205 3353.00
56.5857 3137.00
56.6509 3223.00
56.7161 3066.00
56.7813 3164.00
56.8465 3105.00
56.9117 3229.00
56.9769 3101.00
57.042 3018.00
57.1073 3062.00
57.1724 3097.00
57.2376 3133.00
57.3028 3121.00
57.368 3104.00
57.4332 3052.00
57.4984 3206.00
57.5636 3244.00
57.6288 3198.00
57.694 3237.00
57.7592 3286.00
57.8244 3359.00
57.8896 3291.00
57.9548 3206.00
58.02 3189.00
58.0852 3225.00
58.1504 3049.00
58.2156 3027.00
58.2808 3134.00
58.346 3254.00
58.4112 3201.00
58.4764 3237.00
58.5416 3294.00
58.6068 3410.00
58.672 3821.00
58.7372 4327.00
58.8024 4782.00
58.8676 4595.00
58.9328 4419.00
58.998 4162.00
59.0632 3570.00
59.1284 3551.00
59.1936 3328.00
59.2588 3331.00
59.324 3292.00
59.3892 3221.00
59.4544 3102.00
59.5196 3190.00
59.5848 3318.00
59.65 3287.00
59.7152 3254.00
59.7804 3388.00
59.8456 3498.00
59.9108 3702.00
59.976 4098.00
60.0412 5110.00
60.1064 6040.00
60.1716 5935.00
60.2368 5537.00
60.302 5035.00
60.3672 4487.00
60.4324 3906.00
60.4976 3574.00
60.5628 3457.00
60.628 3304.00
60.6932 3169.00
60.7584 3149.00
60.8236 3249.00
60.8888 3082.00
60.954 3215.00
61.0192 3157.00
61.0844 3186.00
61.1496 3126.00
61.2148 3107.00
61.28 3164.00
61.3452 3042.00
61.4104 3148.00
61.4756 3181.00
61.5408 3119.00
61.606 3156.00
61.6712 3146.00
61.7364 3086.00
61.8016 3191.00
61.8667 3059.00
61.932 2988.00
61.9971 3100.00
62.0623 3072.00
62.1275 3078.00
62.1927 3188.00
62.2579 3017.00
62.3231 3120.00
62.3883 3156.00
62.4535 3177.00
62.5187 3058.00
62.5839 3034.00
62.6491 3094.00
62.7143 3022.00
62.7795 3103.00
62.8447 3108.00
62.9099 3159.00
62.9751 3167.00
63.0403 3154.00
63.1055 3180.00
63.1707 3189.00
63.2359 3185.00
63.3011 3271.00
63.3663 3300.00
63.4315 3414.00
63.4967 3246.00
63.5619 3252.00
63.6271 3250.00
63.6923 3083.00
63.7575 3126.00
63.8227 3050.00
63.8879 3056.00
63.9531 3112.00
64.0183 3183.00
64.0835 3099.00
64.1487 3195.00
64.2139 3170.00
64.2791 3148.00
64.3443 3088.00
64.4095 3041.00
64.4747 3122.00
64.5399 3199.00
64.6051 3185.00
64.6703 3179.00
64.7355 3318.00
64.8007 3588.00
64.8659 3891.00
64.9311 4327.00
64.9963 4081.00
65.0615 3834.00
65.1267 3733.00
65.1919 3432.00
65.2571 3327.00
65.3223 3134.00
65.3875 3222.00
65.4527 3154.00
65.5179 3033.00
65.5831 3113.00
65.6483 3174.00
65.7135 3171.00
65.7787 3189.00
65.8439 3091.00
65.9091 3110.00
65.9743 3066.00
66.0395 3077.00
66.1047 3021.00
66.1699 3129.00
66.2351 3031.00
66.3003 3097.00
66.3655 3148.00
66.4307 3079.00
66.4959 3142.00
66.561 3022.00
66.6263 3121.00
66.6915 3115.00
66.7566 3029.00
66.8218 3096.00
66.887 2991.00
66.9522 3064.00
67.0174 3102.00
67.0826 3103.00
67.1478 3090.00
67.213 3032.00
67.2782 3084.00
67.3434 3104.00
67.4086 3005.00
67.4738 3129.00
67.539 3014.00
67.6042 2987.00
67.6694 3128.00
67.7346 3132.00
67.7998 3156.00
67.865 3265.00
67.9302 3196.00
67.9954 3163.00
68.0606 3201.00
68.1258 3127.00
68.191 3179.00
68.2562 3084.00
68.3214 3093.00
68.3866 3148.00
68.4518 2993.00
68.517 3063.00
68.5822 3135.00
68.6474 3230.00
68.7126 3179.00
68.7778 3125.00
68.843 3157.00
68.9082 3161.00
68.9734 2992.00
69.0386 2962.00
69.1038 3074.00
69.169 3091.00
69.2342 2947.00
69.2994 2975.00
69.3646 3068.00
69.4298 3156.00
69.495 3023.00
69.5602 3013.00
69.6254 3137.00
69.6906 3107.00
69.7558 3065.00
69.821 3293.00
69.8862 3281.00
69.9514 3441.00
70.0166 3243.00
70.0818 3310.00
70.147 3187.00
70.2122 3085.00
70.2774 3330.00
70.3426 3194.00
70.4078 3157.00
70.473 3073.00
70.5382 3041.00
70.6034 3017.00
70.6686 2938.00
70.7338 3008.00
70.799 3109.00
70.8642 3052.00
70.9294 3078.00
70.9946 3251.00
71.0598 3225.00
71.125 3064.00
71.1902 3015.00
71.2554 3155.00
71.3205 3213.00
71.3858 3074.00
71.451 3066.00
71.5162 3122.00
71.5813 2961.00
71.6465 3132.00
71.7117 3174.00
71.7769 3013.00
71.8421 3039.00
71.9073 3086.00
71.9725 3061.00
72.0377 2978.00
72.1029 3074.00
72.1681 2969.00
72.2333 3032.00
72.2985 3130.00
72.3637 3030.00
72.4289 3051.00
72.4941 3094.00
72.5593 3123.00
72.6245 3176.00
72.6897 3162.00
72.7549 3076.00
72.8201 3105.00
72.8853 3122.00
72.9505 3081.00
73.0157 3052.00
73.0809 3047.00
73.1461 3140.00
73.2113 2944.00
73.2765 3035.00
73.3417 3024.00
73.4069 3152.00
73.4721 3092.00
73.5373 3054.00
73.6025 3063.00
73.6677 3173.00
73.7329 3169.00
73.7981 3112.00
73.8633 3160.00
73.9285 3120.00
73.9937 3053.00
74.0589 3129.00
74.1241 3086.00
74.1893 3156.00
74.2545 3137.00
74.3197 3363.00
74.3849 3573.00
74.4501 3471.00
74.5153 3373.00
74.5805 3267.00
74.6457 3323.00
74.7109 3175.00
74.7761 3287.00
74.8413 3068.00
74.9065 3124.00
74.9717 3039.00
75.0369 3006.00
75.1021 3171.00
75.1673 3035.00
75.2325 3029.00
75.2977 3038.00
75.3629 3094.00
75.4281 3019.00
75.4933 2950.00
75.5585 3106.00
75.6237 3103.00
75.6889 3085.00
75.7541 3108.00
75.8193 3003.00
75.8845 3025.00
75.9497 3060.00
76.0149 3160.00
76.0801 3169.00
76.1452 3134.00
76.2104 3020.00
76.2756 3098.00
76.3409 3132.00
76.406 3110.00
76.4712 3102.00
76.5364 3131.00
76.6016 3077.00
76.6668 3238.00
76.732 3152.00
76.7972 3298.00
76.8624 3217.00
76.9276 3297.00
76.9928 3237.00
77.058 3255.00
77.1232 3174.00
77.1884 3111.00
77.2536 3141.00
77.3188 3043.00
77.384 3048.00
77.4492 2971.00
77.5144 2982.00
77.5796 3074.00
77.6448 3099.00
77.71 3184.00
77.7752 3278.00
77.8404 3187.00
77.9056 3251.00
77.9708 3065.00
78.036 3163.00
78.1012 3119.00
78.1664 3070.00
78.2316 3083.00
78.2968 3104.00
78.362 3154.00
78.4272 3140.00
78.4924 3191.00
78.5576 2965.00
78.6228 3169.00
78.688 3098.00
78.7532 3097.00
78.8184 3124.00
78.8836 3191.00
78.9488 3109.00
79.014 3036.00
79.0792 3059.00
79.1444 3153.00
79.2096 3076.00
79.2748 2987.00
79.34 3023.00
79.4052 2991.00
79.4704 3058.00
79.5356 3064.00
79.6008 3147.00
79.666 2998.00
79.7312 3076.00
79.7964 3115.00
79.8616 3078.00
79.9268 3063.00
79.992 3193.00
80.0572 3164.00
80.1224 3196.00
80.1876 3139.00
80.2528 3170.00
80.318 3261.00
80.3832 3240.00
80.4484 3280.00
80.5136 3251.00
80.5788 3375.00
80.644 3140.00
80.7092 3303.00
80.7744 3170.00
80.8396 3206.00
80.9048 3128.00
80.9699 3089.00
81.0351 3053.00
81.1003 3192.00
81.1655 3047.00
81.2307 3162.00
81.2959 3301.00
81.3611 3176.00
81.4263 3266.00
81.4915 3270.00
81.5567 3121.00
81.6219 3218.00
81.6871 3127.00
81.7523 3167.00
81.8175 3209.00
81.8827 3096.00
81.9479 3019.00
82.0131 3048.00
82.0783 3111.00
82.1435 3104.00
82.2087 3061.00
82.2739 3121.00
82.3391 2959.00
82.4043 3078.00
82.4695 3029.00
82.5347 3005.00
82.5999 3121.00
82.6651 3024.00
82.7303 3100.00
82.7955 3123.00
82.8607 3101.00
82.9259 3066.00
82.9911 3078.00
83.0563 3114.00
83.1215 3003.00
83.1867 3090.00
83.2519 3076.00
83.3171 3104.00
83.3823 3015.00
83.4475 3085.00
83.5127 2999.00
83.5779 2907.00
83.6431 3088.00
83.7083 3114.00
83.7735 3192.00
83.8387 3020.00
83.9039 3149.00
83.9691 3084.00
84.0343 2981.00
84.0995 3055.00
84.1647 3078.00
84.2299 3070.00
84.2951 3025.00
84.3603 2909.00
84.4255 3002.00
84.4907 3026.00
84.5559 2991.00
84.6211 2980.00
84.6863 3005.00
84.7515 3007.00
84.8167 2950.00
84.8819 3009.00
84.9471 2943.00
85.0123 3117.00
85.0775 3071.00
85.1427 3074.00
85.2079 3110.00
85.2731 3051.00
85.3383 3006.00
85.4035 3174.00
85.4687 2921.00
85.5339 3004.00
85.5991 3122.00
85.6643 3059.00
85.7295 3043.00
85.7946 3035.00
85.8598 3108.00
85.925 3180.00
85.9903 3163.00
86.0554 3122.00
86.1206 3111.00
86.1858 3174.00
86.251 3155.00
86.3162 3159.00
86.3814 3047.00
86.4466 3101.00
86.5118 3202.00
86.577 3214.00
86.6422 3246.00
86.7074 3254.00
86.7726 3331.00
86.8378 3321.00
86.903 3203.00
86.9682 3186.00
87.0334 3218.00
87.0986 3027.00
87.1638 3115.00
87.229 3086.00
87.2942 3122.00
87.3594 3046.00
87.4246 3033.00
87.4898 3018.00
87.555 3128.00
87.6202 3023.00
87.6854 2978.00
87.7506 3100.00
87.8158 3054.00
87.881 3035.00
87.9462 3196.00
88.0114 3068.00
88.0766 3063.00
88.1418 2972.00
88.207 3028.00
88.2722 3077.00
88.3374 3075.00
88.4026 3052.00
88.4678 3133.00
88.533 3075.00
88.5982 3089.00
88.6634 3152.00
88.7286 3092.00
88.7938 3166.00
88.859 3207.00
88.9242 3031.00
88.9894 2993.00
89.0546 2950.00
89.1198 3139.00
89.185 3110.00
89.2502 3177.00
89.3154 3052.00
89.3806 2978.00
89.4458 2983.00
89.511 3169.00
89.5762 3035.00
89.6414 3110.00
89.7066 3080.00
89.7718 3069.00
89.837 3040.00
89.9022 3088.00
89.9674 3048.00
90.0326 2971.00
90.0978 3071.00
90.163 3042.00
90.2282 3086.00
90.2934 3012.00
90.3586 3168.00
90.4238 3070.00
90.489 3090.00
90.5542 3078.00
90.6193 3172.00
90.6845 3030.00
90.7497 3147.00
90.8149 3229.00
90.8801 3345.00
90.9453 3333.00
91.0105 3326.00
91.0757 3293.00
91.1409 3216.00
91.2061 3194.00
91.2713 3187.00
91.3365 3209.00
91.4017 3199.00
91.4669 3096.00
91.5321 3090.00
91.5973 3021.00
91.6625 3057.00
91.7277 3099.00
91.7929 3124.00
91.8581 3039.00
91.9233 3026.00
91.9885 3009.00
92.0537 3079.00
92.1189 3094.00
92.1841 3081.00
92.2493 2980.00
92.3145 3096.00
92.3797 3088.00
92.4449 3066.00
92.5101 3108.00
92.5753 3116.00
92.6405 3053.00
92.7057 3050.00
92.7709 3091.00
92.8361 3092.00
92.9013 3102.00
92.9665 3145.00
93.0317 3178.00
93.0969 3150.00
93.1621 3094.00
93.2273 3131.00
93.2925 3142.00
93.3577 3115.00
93.4229 3183.00
93.4881 3118.00
93.5533 3019.00
93.6185 3102.00
93.6837 2978.00
93.7489 3192.00
93.8141 3099.00
93.8793 3023.00
93.9445 3042.00
94.0097 3063.00
94.0749 3024.00
94.1401 3034.00
94.2053 3089.00
94.2705 3081.00
94.3357 3003.00
94.4009 3077.00
94.4661 2985.00
94.5313 3078.00
94.5965 3031.00
94.6617 3064.00
94.7269 3096.00
94.7921 3074.00
94.8573 3020.00
94.9225 3067.00
94.9877 2991.00
95.0529 3000.00
95.1181 3002.00
95.1833 3173.00
95.2485 3045.00
95.3137 3074.00
95.3789 2977.00
95.444 3049.00
95.5092 3016.00
95.5744 3192.00
95.6396 3044.00
95.7048 3082.00
95.77 3079.00
95.8352 3191.00
95.9004 3010.00
95.9656 3055.00
96.0308 3041.00
96.096 3011.00
96.1612 3152.00
96.2264 3051.00
96.2916 2971.00
96.3568 3089.00
96.422 3128.00
96.4872 3124.00
96.5524 3156.00
96.6176 3200.00
96.6828 3291.00
96.748 3218.00
96.8132 3258.00
96.8784 3138.00
96.9436 3174.00
97.0088 3239.00
97.074 3227.00
97.1392 3102.00
97.2044 3027.00
97.2696 3136.00
97.3348 3091.00
97.4 3048.00
97.4652 3092.00
97.5304 3093.00
97.5956 3110.00
97.6608 3135.00
97.726 3181.00
97.7912 3238.00
97.8564 3083.00
97.9216 3184.00
97.9868 3143.00
98.052 3166.00
98.1172 3319.00
98.1824 3238.00
98.2476 3187.00
98.3128 3276.00
98.378 3260.00
98.4432 3297.00
98.5084 3281.00
98.5736 3265.00
98.6388 3136.00
98.704 3093.00
98.7692 3171.00
98.8344 3249.00
98.8996 3047.00
98.9648 3004.00
99.03 3095.00
99.0952 3183.00
99.1604 3063.00
99.2256 3115.00
99.2908 3011.00
99.356 3002.00
99.4212 3100.00
99.4864 3102.00
99.5516 3136.00
99.6168 3044.00
99.682 3047.00
99.7472 3078.00
99.8124 3035.00
99.8776 3108.00
99.9428 3030.00
100.008 3109.00
100.073 3118.00
100.095 2984.00