File: data/xrd_creation/results/PG_2738-1.xy
10.0094 2634.00
10.0746 2576.00
10.1398 2540.00
10.205 2556.00
10.2702 2341.00
10.3354 2509.00
10.4006 2464.00
10.4658 2451.00
10.531 2468.00
10.5962 2344.00
10.6614 2448.00
10.7266 2404.00
10.7918 2464.00
10.857 2330.00
10.9222 2370.00
10.9874 2337.00
11.0526 2314.00
11.1178 2274.00
11.183 2311.00
11.2482 2359.00
11.3134 2206.00
11.3786 2276.00
11.4438 2301.00
11.509 2094.00
11.5742 2170.00
11.6394 2179.00
11.7046 2179.00
11.7698 2192.00
11.835 2169.00
11.9002 2169.00
11.9654 2130.00
12.0306 2201.00
12.0958 2216.00
12.161 2163.00
12.2262 2136.00
12.2914 2205.00
12.3566 2154.00
12.4218 2332.00
12.487 2420.00
12.5522 2408.00
12.6174 2275.00
12.6826 2105.00
12.7478 2037.00
12.813 2047.00
12.8782 2147.00
12.9434 2062.00
13.0086 2092.00
13.0738 2089.00
13.139 2046.00
13.2042 1998.00
13.2694 2049.00
13.3346 2025.00
13.3998 2025.00
13.465 1952.00
13.5302 2004.00
13.5954 2082.00
13.6606 1997.00
13.7258 2025.00
13.791 1961.00
13.8562 1972.00
13.9214 2014.00
13.9865 1965.00
14.0517 1986.00
14.1169 1929.00
14.1821 1950.00
14.2473 1929.00
14.3125 1938.00
14.3777 1986.00
14.4429 1942.00
14.5081 2026.00
14.5733 1878.00
14.6385 1926.00
14.7037 1970.00
14.7689 1913.00
14.8341 1875.00
14.8993 1944.00
14.9645 1910.00
15.0297 1959.00
15.0949 1869.00
15.1601 1799.00
15.2253 1990.00
15.2905 1863.00
15.3557 1964.00
15.4209 1918.00
15.4861 1924.00
15.5513 1799.00
15.6165 1846.00
15.6817 1843.00
15.7469 1959.00
15.8121 1821.00
15.8773 1852.00
15.9425 1924.00
16.0077 1803.00
16.0729 1898.00
16.1381 1798.00
16.2033 1901.00
16.2685 1883.00
16.3337 1946.00
16.3989 1872.00
16.4641 1919.00
16.5293 1771.00
16.5945 1875.00
16.6597 1936.00
16.7249 1876.00
16.7901 1935.00
16.8553 1887.00
16.9205 1796.00
16.9857 1903.00
17.0509 1797.00
17.1161 1753.00
17.1813 1808.00
17.2465 1811.00
17.3117 1853.00
17.3769 1821.00
17.4421 1835.00
17.5073 1789.00
17.5725 1780.00
17.6377 1798.00
17.7029 1778.00
17.7681 1722.00
17.8333 1750.00
17.8985 1741.00
17.9637 1736.00
18.0289 1758.00
18.0941 1708.00
18.1593 1683.00
18.2245 1724.00
18.2897 1749.00
18.3549 1790.00
18.4201 1685.00
18.4853 1687.00
18.5505 1746.00
18.6157 1699.00
18.6809 1720.00
18.7461 1707.00
18.8112 1760.00
18.8764 1656.00
18.9416 1694.00
19.0068 1765.00
19.072 1681.00
19.1372 1722.00
19.2024 1653.00
19.2676 1686.00
19.3328 1713.00
19.398 1615.00
19.4632 1660.00
19.5284 1635.00
19.5936 1672.00
19.6588 1585.00
19.724 1600.00
19.7892 1591.00
19.8544 1571.00
19.9196 1576.00
19.9848 1625.00
20.05 1603.00
20.1152 1590.00
20.1804 1602.00
20.2456 1680.00
20.3108 1641.00
20.376 1631.00
20.4412 1679.00
20.5064 1613.00
20.5716 1625.00
20.6368 1596.00
20.702 1656.00
20.7672 1601.00
20.8324 1558.00
20.8976 1690.00
20.9628 1602.00
21.028 1608.00
21.0932 1563.00
21.1584 1619.00
21.2236 1624.00
21.2888 1568.00
21.354 1595.00
21.4192 1578.00
21.4844 1583.00
21.5496 1629.00
21.6148 1618.00
21.68 1682.00
21.7452 1538.00
21.8104 1505.00
21.8756 1629.00
21.9408 1584.00
22.006 1599.00
22.0712 1599.00
22.1364 1487.00
22.2016 1506.00
22.2668 1604.00
22.332 1627.00
22.3972 1544.00
22.4624 1607.00
22.5276 1573.00
22.5928 1580.00
22.658 1550.00
22.7232 1604.00
22.7884 1654.00
22.8536 1628.00
22.9188 1603.00
22.984 1574.00
23.0492 1576.00
23.1144 1623.00
23.1796 1569.00
23.2448 1576.00
23.31 1664.00
23.3752 1699.00
23.4404 1717.00
23.5056 1618.00
23.5708 1602.00
23.6359 1557.00
23.7011 1594.00
23.7663 1465.00
23.8315 1599.00
23.8967 1675.00
23.9619 1602.00
24.0271 1677.00
24.0923 1922.00
24.1575 2322.00
24.2227 3050.00
24.2879 3976.00
24.3531 4311.00
24.4183 3252.00
24.4835 2182.00
24.5487 1743.00
24.6139 1653.00
24.6791 1637.00
24.7443 1698.00
24.8095 1775.00
24.8747 1814.00
24.9399 1816.00
25.0051 1688.00
25.0703 1501.00
25.1355 1592.00
25.2007 1578.00
25.2659 1496.00
25.3311 1493.00
25.3963 1541.00
25.4615 1552.00
25.5267 1461.00
25.5919 1457.00
25.6571 1463.00
25.7223 1565.00
25.7875 1532.00
25.8527 1487.00
25.9179 1488.00
25.9831 1467.00
26.0483 1470.00
26.1135 1436.00
26.1787 1531.00
26.2439 1498.00
26.3091 1530.00
26.3743 1560.00
26.4395 1474.00
26.5047 1468.00
26.5699 1436.00
26.6351 1419.00
26.7003 1517.00
26.7655 1504.00
26.8307 1494.00
26.8959 1514.00
26.9611 1465.00
27.0263 1497.00
27.0915 1483.00
27.1567 1509.00
27.2219 1548.00
27.2871 1446.00
27.3523 1534.00
27.4175 1462.00
27.4827 1462.00
27.5479 1373.00
27.6131 1453.00
27.6783 1458.00
27.7435 1458.00
27.8087 1446.00
27.8739 1482.00
27.9391 1525.00
28.0043 1536.00
28.0695 1582.00
28.1347 1418.00
28.1999 1424.00
28.2651 1416.00
28.3303 1330.00
28.3955 1423.00
28.4606 1485.00
28.5258 1439.00
28.591 1424.00
28.6562 1447.00
28.7214 1477.00
28.7866 1402.00
28.8518 1434.00
28.917 1402.00
28.9822 1479.00
29.0474 1520.00
29.1126 1636.00
29.1778 1518.00
29.243 1538.00
29.3082 1455.00
29.3734 1459.00
29.4386 1468.00
29.5038 1481.00
29.569 1513.00
29.6342 1554.00
29.6994 1644.00
29.7646 1724.00
29.8298 1894.00
29.895 2396.00
29.9602 4054.00
30.0254 7131.00
30.0906 10975.00
30.1558 11926.00
30.221 7152.00
30.2862 3199.00
30.3514 1934.00
30.4166 1771.00
30.4818 1670.00
30.547 1588.00
30.6122 1417.00
30.6774 1508.00
30.7426 1420.00
30.8078 1407.00
30.873 1456.00
30.9382 1402.00
31.0034 1548.00
31.0686 1592.00
31.1338 1823.00
31.199 2385.00
31.2642 2621.00
31.3294 2107.00
31.3946 1698.00
31.4598 1436.00
31.525 1483.00
31.5902 1393.00
31.6554 1404.00
31.7206 1330.00
31.7858 1389.00
31.851 1360.00
31.9162 1396.00
31.9814 1419.00
32.0466 1424.00
32.1118 1445.00
32.177 1405.00
32.2422 1347.00
32.3074 1405.00
32.3726 1429.00
32.4378 1522.00
32.503 1571.00
32.5682 1551.00
32.6334 1463.00
32.6986 1456.00
32.7638 1404.00
32.829 1406.00
32.8942 1461.00
32.9594 1570.00
33.0246 1822.00
33.0898 2173.00
33.1549 2672.00
33.2201 2581.00
33.2853 2180.00
33.3505 1643.00
33.4157 1448.00
33.4809 1470.00
33.5461 1424.00
33.6113 1429.00
33.6765 1384.00
33.7417 1343.00
33.8069 1308.00
33.8721 1386.00
33.9373 1370.00
34.0025 1329.00
34.0677 1366.00
34.1329 1388.00
34.1981 1396.00
34.2633 1293.00
34.3285 1322.00
34.3937 1306.00
34.4589 1289.00
34.5241 1334.00
34.5893 1336.00
34.6545 1334.00
34.7197 1285.00
34.7849 1338.00
34.8501 1352.00
34.9153 1285.00
34.9805 1335.00
35.0457 1305.00
35.1109 1387.00
35.1761 1280.00
35.2413 1377.00
35.3065 1438.00
35.3717 1700.00
35.4369 2040.00
35.5021 2604.00
35.5673 2651.00
35.6325 2030.00
35.6977 1540.00
35.7629 1547.00
35.8281 1532.00
35.8933 1778.00
35.9585 2305.00
36.0237 2703.00
36.0889 2425.00
36.1541 1909.00
36.2193 1556.00
36.2845 1612.00
36.3497 1618.00
36.4149 1457.00
36.4801 1375.00
36.5453 1316.00
36.6105 1337.00
36.6757 1338.00
36.7409 1422.00
36.8061 1359.00
36.8713 1313.00
36.9365 1327.00
37.0017 1285.00
37.0669 1293.00
37.1321 1364.00
37.1973 1264.00
37.2625 1298.00
37.3277 1348.00
37.3929 1399.00
37.4581 1494.00
37.5233 1801.00
37.5885 1944.00
37.6537 1886.00
37.7189 1693.00
37.7841 1383.00
37.8493 1366.00
37.9145 1263.00
37.9796 1328.00
38.0448 1365.00
38.11 1340.00
38.1752 1438.00
38.2404 1441.00
38.3056 1402.00
38.3708 1577.00
38.436 1541.00
38.5012 1533.00
38.5664 1364.00
38.6316 1315.00
38.6968 1334.00
38.762 1360.00
38.8272 1273.00
38.8924 1239.00
38.9576 1185.00
39.0228 1286.00
39.088 1282.00
39.1532 1276.00
39.2184 1275.00
39.2836 1274.00
39.3488 1282.00
39.414 1268.00
39.4792 1303.00
39.5444 1262.00
39.6096 1216.00
39.6748 1335.00
39.74 1317.00
39.8052 1264.00
39.8704 1236.00
39.9356 1302.00
40.0008 1297.00
40.066 1271.00
40.1312 1309.00
40.1964 1392.00
40.2616 1519.00
40.3268 1700.00
40.392 1570.00
40.4572 1540.00
40.5224 1300.00
40.5876 1429.00
40.6528 1446.00
40.718 1850.00
40.7832 2038.00
40.8484 1880.00
40.9136 1516.00
40.9788 1303.00
41.044 1301.00
41.1092 1258.00
41.1744 1310.00
41.2396 1243.00
41.3048 1262.00
41.37 1290.00
41.4352 1239.00
41.5004 1243.00
41.5656 1305.00
41.6308 1287.00
41.696 1303.00
41.7612 1229.00
41.8264 1239.00
41.8916 1268.00
41.9568 1288.00
42.022 1233.00
42.0872 1298.00
42.1524 1248.00
42.2176 1198.00
42.2828 1196.00
42.348 1293.00
42.4132 1282.00
42.4784 1245.00
42.5436 1255.00
42.6088 1275.00
42.6739 1334.00
42.7392 1249.00
42.8043 1292.00
42.8695 1270.00
42.9347 1303.00
42.9999 1217.00
43.0651 1291.00
43.1303 1286.00
43.1955 1343.00
43.2607 1476.00
43.3259 1731.00
43.3911 2034.00
43.4563 1950.00
43.5215 1734.00
43.5867 1451.00
43.6519 1313.00
43.7171 1347.00
43.7823 1316.00
43.8475 1395.00
43.9127 1283.00
43.9779 1273.00
44.0431 1245.00
44.1083 1351.00
44.1735 1349.00
44.2387 1344.00
44.3039 1340.00
44.3691 1242.00
44.4343 1219.00
44.4995 1252.00
44.5647 1367.00
44.6299 1230.00
44.6951 1315.00
44.7603 1269.00
44.8255 1268.00
44.8907 1341.00
44.9559 1279.00
45.0211 1235.00
45.0863 1314.00
45.1515 1246.00
45.2167 1306.00
45.2819 1382.00
45.3471 1373.00
45.4123 1343.00
45.4775 1356.00
45.5427 1286.00
45.6079 1256.00
45.6731 1249.00
45.7383 1211.00
45.8035 1273.00
45.8687 1181.00
45.9339 1260.00
45.9991 1196.00
46.0643 1304.00
46.1295 1312.00
46.1947 1217.00
46.2599 1248.00
46.3251 1243.00
46.3903 1242.00
46.4555 1278.00
46.5207 1243.00
46.5859 1256.00
46.6511 1210.00
46.7163 1254.00
46.7815 1256.00
46.8467 1268.00
46.9119 1240.00
46.9771 1253.00
47.0423 1202.00
47.1075 1269.00
47.1727 1345.00
47.2379 1280.00
47.3031 1229.00
47.3683 1281.00
47.4335 1286.00
47.4986 1299.00
47.5639 1275.00
47.629 1305.00
47.6942 1324.00
47.7594 1540.00
47.8246 1860.00
47.8898 2237.00
47.955 2003.00
48.0202 1770.00
48.0854 1436.00
48.1506 1256.00
48.2158 1213.00
48.281 1289.00
48.3462 1231.00
48.4114 1150.00
48.4766 1246.00
48.5418 1206.00
48.607 1225.00
48.6722 1185.00
48.7374 1232.00
48.8026 1291.00
48.8678 1242.00
48.933 1240.00
48.9982 1205.00
49.0634 1183.00
49.1286 1331.00
49.1938 1272.00
49.259 1324.00
49.3242 1387.00
49.3894 1520.00
49.4546 1921.00
49.5198 2337.00
49.585 2144.00
49.6502 1907.00
49.7154 1578.00
49.7806 1432.00
49.8458 1222.00
49.911 1305.00
49.9762 1312.00
50.0414 1339.00
50.1066 1224.00
50.1718 1256.00
50.237 1323.00
50.3022 1281.00
50.3674 1347.00
50.4326 1421.00
50.4978 1399.00
50.563 1422.00
50.6282 1388.00
50.6934 1335.00
50.7586 1295.00
50.8238 1244.00
50.889 1327.00
50.9542 1349.00
51.0194 1387.00
51.0846 1316.00
51.1498 1419.00
51.215 1611.00
51.2802 2038.00
51.3454 2774.00
51.4106 2728.00
51.4758 2124.00
51.541 1880.00
51.6062 1483.00
51.6714 1294.00
51.7366 1343.00
51.8018 1331.00
51.867 1373.00
51.9322 1331.00
51.9974 1271.00
52.0626 1258.00
52.1278 1339.00
52.193 1320.00
52.2582 1407.00
52.3233 1446.00
52.3886 1762.00
52.4537 2287.00
52.5189 3193.00
52.5841 3170.00
52.6493 2585.00
52.7145 2417.00
52.7797 2287.00
52.8449 2952.00
52.9101 3801.00
52.9753 3058.00
53.0405 2750.00
53.1057 2115.00
53.1709 1533.00
53.2361 1316.00
53.3013 1346.00
53.3665 1320.00
53.4317 1388.00
53.4969 1316.00
53.5621 1313.00
53.6273 1296.00
53.6925 1260.00
53.7577 1295.00
53.8229 1299.00
53.8881 1269.00
53.9533 1280.00
54.0185 1228.00
54.0837 1296.00
54.1489 1338.00
54.2141 1260.00
54.2793 1256.00
54.3445 1261.00
54.4097 1235.00
54.4749 1302.00
54.5401 1366.00
54.6053 1427.00
54.6705 1505.00
54.7357 1506.00
54.8009 1470.00
54.8661 1336.00
54.9313 1380.00
54.9965 1255.00
55.0617 1315.00
55.1269 1303.00
55.1921 1415.00
55.2573 1508.00
55.3225 1708.00
55.3877 1771.00
55.4529 1616.00
55.5181 1525.00
55.5833 1400.00
55.6485 1361.00
55.7137 1263.00
55.7789 1226.00
55.8441 1324.00
55.9093 1243.00
55.9745 1275.00
56.0397 1249.00
56.1049 1259.00
56.1701 1251.00
56.2353 1251.00
56.3005 1326.00
56.3657 1260.00
56.4309 1297.00
56.4961 1245.00
56.5613 1216.00
56.6265 1221.00
56.6917 1236.00
56.7569 1199.00
56.8221 1294.00
56.8873 1243.00
56.9525 1271.00
57.0177 1262.00
57.0829 1271.00
57.148 1323.00
57.2132 1342.00
57.2784 1401.00
57.3436 1310.00
57.4088 1265.00
57.474 1214.00
57.5392 1282.00
57.6044 1279.00
57.6696 1223.00
57.7348 1257.00
57.8 1267.00
57.8652 1275.00
57.9304 1222.00
57.9956 1325.00
58.0608 1272.00
58.126 1267.00
58.1912 1348.00
58.2564 1308.00
58.3216 1257.00
58.3868 1306.00
58.452 1311.00
58.5172 1330.00
58.5824 1331.00
58.6476 1266.00
58.7128 1340.00
58.778 1274.00
58.8432 1336.00
58.9084 1287.00
58.9736 1305.00
59.0388 1309.00
59.104 1293.00
59.1692 1224.00
59.2344 1223.00
59.2996 1252.00
59.3648 1244.00
59.43 1281.00
59.4952 1331.00
59.5604 1290.00
59.6256 1210.00
59.6908 1290.00
59.756 1326.00
59.8212 1295.00
59.8864 1376.00
59.9516 1517.00
60.0168 1612.00
60.082 1898.00
60.1472 2384.00
60.2124 3000.00
60.2776 2654.00
60.3428 2104.00
60.408 2136.00
60.4732 1595.00
60.5384 1410.00
60.6036 1383.00
60.6688 1283.00
60.734 1347.00
60.7992 1399.00
60.8644 1436.00
60.9296 1330.00
60.9948 1338.00
61.06 1300.00
61.1252 1253.00
61.1904 1247.00
61.2556 1269.00
61.3208 1332.00
61.386 1318.00
61.4512 1328.00
61.5164 1235.00
61.5816 1279.00
61.6468 1286.00
61.712 1250.00
61.7772 1235.00
61.8424 1331.00
61.9076 1286.00
61.9727 1256.00
62.0379 1291.00
62.1031 1429.00
62.1683 1511.00
62.2335 1904.00
62.2987 1943.00
62.3639 1557.00
62.4291 1584.00
62.4943 1619.00
62.5595 1344.00
62.6247 1435.00
62.6899 1386.00
62.7551 1395.00
62.8203 1475.00
62.8855 1674.00
62.9507 2210.00
63.0159 2723.00
63.0811 2196.00
63.1463 2012.00
63.2115 2048.00
63.2767 1656.00
63.3419 1410.00
63.4071 1363.00
63.4723 1377.00
63.5375 1328.00
63.6027 1378.00
63.6679 1606.00
63.7331 1990.00
63.7983 2910.00
63.8635 3724.00
63.9287 2836.00
63.9939 2452.00
64.0591 2523.00
64.1243 1796.00
64.1895 1579.00
64.2547 1474.00
64.3199 1381.00
64.3851 1387.00
64.4503 1372.00
64.5155 1346.00
64.5807 1347.00
64.6459 1286.00
64.7111 1336.00
64.7763 1425.00
64.8415 1413.00
64.9067 1353.00
64.9719 1302.00
65.0371 1316.00
65.1023 1344.00
65.1675 1253.00
65.2327 1284.00
65.2979 1328.00
65.3631 1289.00
65.4283 1234.00
65.4935 1282.00
65.5587 1246.00
65.6239 1351.00
65.6891 1278.00
65.7543 1318.00
65.8195 1388.00
65.8847 1555.00
65.9499 1645.00
66.0151 1486.00
66.0803 1455.00
66.1455 1381.00
66.2107 1352.00
66.2759 1403.00
66.3411 1274.00
66.4063 1298.00
66.4715 1342.00
66.5367 1296.00
66.6019 1391.00
66.6671 1244.00
66.7322 1258.00
66.7974 1304.00
66.8626 1291.00
66.9278 1320.00
66.993 1319.00
67.0582 1258.00
67.1234 1281.00
67.1886 1325.00
67.2538 1250.00
67.319 1255.00
67.3842 1313.00
67.4494 1303.00
67.5146 1485.00
67.5798 1621.00
67.645 1852.00
67.7102 1998.00
67.7754 1707.00
67.8406 1641.00
67.9058 1621.00
67.971 1490.00
68.0362 1349.00
68.1014 1238.00
68.1666 1328.00
68.2318 1276.00
68.297 1241.00
68.3622 1279.00
68.4274 1295.00
68.4926 1225.00
68.5578 1284.00
68.623 1252.00
68.6882 1216.00
68.7534 1288.00
68.8186 1311.00
68.8838 1242.00
68.949 1322.00
69.0142 1233.00
69.0794 1331.00
69.1446 1267.00
69.2098 1315.00
69.275 1289.00
69.3402 1322.00
69.4054 1284.00
69.4706 1399.00
69.5358 1388.00
69.601 1384.00
69.6662 1343.00
69.7314 1391.00
69.7966 1327.00
69.8618 1291.00
69.927 1342.00
69.9922 1268.00
70.0574 1308.00
70.1226 1304.00
70.1878 1319.00
70.253 1299.00
70.3182 1267.00
70.3834 1266.00
70.4486 1339.00
70.5138 1341.00
70.579 1302.00
70.6442 1257.00
70.7094 1259.00
70.7746 1332.00
70.8398 1225.00
70.905 1274.00
70.9702 1289.00
71.0354 1361.00
71.1006 1249.00
71.1658 1357.00
71.231 1292.00
71.2962 1337.00
71.3614 1249.00
71.4266 1387.00
71.4918 1384.00
71.5569 1524.00
71.6221 1468.00
71.6873 1375.00
71.7525 1389.00
71.8177 1290.00
71.8829 1276.00
71.9481 1299.00
72.0133 1229.00
72.0785 1270.00
72.1437 1270.00
72.2089 1213.00
72.2741 1300.00
72.3393 1324.00
72.4045 1239.00
72.4697 1315.00
72.5349 1269.00
72.6001 1313.00
72.6653 1302.00
72.7305 1188.00
72.7957 1250.00
72.8609 1300.00
72.9261 1239.00
72.9913 1243.00
73.0565 1243.00
73.1217 1277.00
73.1869 1244.00
73.2521 1310.00
73.3173 1340.00
73.3825 1298.00
73.4477 1336.00
73.5129 1324.00
73.5781 1379.00
73.6433 1279.00
73.7085 1258.00
73.7737 1247.00
73.8389 1350.00
73.9041 1345.00
73.9693 1283.00
74.0345 1263.00
74.0997 1278.00
74.1649 1295.00
74.2301 1312.00
74.2953 1337.00
74.3605 1381.00
74.4257 1431.00
74.4909 1345.00
74.5561 1328.00
74.6213 1331.00
74.6865 1314.00
74.7517 1488.00
74.8169 1395.00
74.8821 1322.00
74.9473 1306.00
75.0125 1420.00
75.0777 1336.00
75.1429 1290.00
75.2081 1308.00
75.2733 1262.00
75.3385 1358.00
75.4037 1359.00
75.4689 1272.00
75.5341 1297.00
75.5993 1261.00
75.6645 1315.00
75.7297 1302.00
75.7949 1393.00
75.8601 1366.00
75.9253 1257.00
75.9905 1322.00
76.0557 1340.00
76.1209 1407.00
76.186 1428.00
76.2513 1431.00
76.3165 1488.00
76.3816 1534.00
76.4468 1461.00
76.512 1414.00
76.5772 1386.00
76.6424 1363.00
76.7076 1342.00
76.7728 1370.00
76.838 1263.00
76.9032 1324.00
76.9684 1296.00
77.0336 1248.00
77.0988 1315.00
77.164 1345.00
77.2292 1305.00
77.2944 1336.00
77.3596 1371.00
77.4248 1307.00
77.49 1312.00
77.5552 1605.00
77.6204 1747.00
77.6856 1649.00
77.7508 1519.00
77.816 1545.00
77.8812 1471.00
77.9464 1456.00
78.0116 1368.00
78.0768 1350.00
78.142 1333.00
78.2072 1332.00
78.2724 1303.00
78.3376 1345.00
78.4028 1257.00
78.468 1322.00
78.5332 1315.00
78.5984 1288.00
78.6636 1298.00
78.7288 1250.00
78.794 1313.00
78.8592 1284.00
78.9244 1347.00
78.9896 1301.00
79.0548 1261.00
79.12 1261.00
79.1852 1298.00
79.2504 1240.00
79.3156 1238.00
79.3808 1320.00
79.446 1398.00
79.5112 1300.00
79.5764 1323.00
79.6416 1382.00
79.7068 1513.00
79.772 1640.00
79.8372 1993.00
79.9024 2121.00
79.9676 2112.00
80.0328 1847.00
80.098 1853.00
80.1632 1907.00
80.2284 1686.00
80.2936 1541.00
80.3588 1381.00
80.424 1368.00
80.4892 1383.00
80.5544 1375.00
80.6196 1249.00
80.6848 1425.00
80.75 1349.00
80.8152 1332.00
80.8804 1279.00
80.9456 1332.00
81.0108 1378.00
81.076 1317.00
81.1412 1279.00
81.2063 1351.00
81.2715 1346.00
81.3367 1280.00
81.4019 1286.00
81.4671 1330.00
81.5323 1302.00
81.5975 1300.00
81.6627 1260.00
81.7279 1272.00
81.7931 1346.00
81.8583 1214.00
81.9235 1286.00
81.9887 1317.00
82.0539 1317.00
82.1191 1318.00
82.1843 1330.00
82.2495 1307.00
82.3147 1292.00
82.3799 1366.00
82.4451 1324.00
82.5103 1331.00
82.5755 1271.00
82.6407 1272.00
82.7059 1347.00
82.7711 1354.00
82.8363 1275.00
82.9015 1278.00
82.9667 1344.00
83.0319 1354.00
83.0971 1403.00
83.1623 1479.00
83.2275 1482.00
83.2927 1379.00
83.3579 1377.00
83.4231 1392.00
83.4883 1388.00
83.5535 1382.00
83.6187 1377.00
83.6839 1291.00
83.7491 1363.00
83.8143 1243.00
83.8795 1388.00
83.9447 1297.00
84.0099 1353.00
84.0751 1340.00
84.1403 1292.00
84.2055 1343.00
84.2707 1371.00
84.3359 1372.00
84.4011 1295.00
84.4663 1290.00
84.5315 1309.00
84.5967 1290.00
84.6619 1320.00
84.7271 1362.00
84.7923 1356.00
84.8575 1341.00
84.9227 1574.00
84.9879 1796.00
85.0531 1739.00
85.1183 1547.00
85.1835 1415.00
85.2487 1536.00
85.3139 1494.00
85.3791 1401.00
85.4443 1348.00
85.5095 1350.00
85.5747 1294.00
85.6399 1254.00
85.7051 1268.00
85.7703 1257.00
85.8354 1289.00
85.9006 1247.00
85.9659 1364.00
86.031 1399.00
86.0962 1365.00
86.1614 1279.00
86.2266 1319.00
86.2918 1398.00
86.357 1325.00
86.4222 1331.00
86.4874 1296.00
86.5526 1430.00
86.6178 1539.00
86.683 1746.00
86.7482 1723.00
86.8134 1550.00
86.8786 1577.00
86.9438 1721.00
87.009 1639.00
87.0742 1458.00
87.1394 1419.00
87.2046 1456.00
87.2698 1367.00
87.335 1315.00
87.4002 1397.00
87.4654 1344.00
87.5306 1330.00
87.5958 1398.00
87.661 1321.00
87.7262 1364.00
87.7914 1347.00
87.8566 1380.00
87.9218 1379.00
87.987 1458.00
88.0522 1501.00
88.1174 1612.00
88.1826 1860.00
88.2478 1955.00
88.313 1664.00
88.3782 1623.00
88.4434 1570.00
88.5086 1644.00
88.5738 1569.00
88.639 1390.00
88.7042 1261.00
88.7694 1376.00
88.8346 1375.00
88.8998 1410.00
88.965 1359.00
89.0302 1262.00
89.0954 1398.00
89.1606 1372.00
89.2258 1544.00
89.291 1520.00
89.3562 1424.00
89.4214 1525.00
89.4866 1640.00
89.5518 1603.00
89.617 1612.00
89.6822 1441.00
89.7474 1409.00
89.8126 1418.00
89.8778 1364.00
89.943 1362.00
90.0082 1358.00
90.0734 1310.00
90.1386 1314.00
90.2038 1358.00
90.269 1437.00
90.3342 1481.00
90.3994 1549.00
90.4646 1452.00
90.5298 1539.00
90.595 1495.00
90.6601 1779.00
90.7253 1557.00
90.7905 1427.00
90.8557 1481.00
90.9209 1465.00
90.9861 1440.00
91.0513 1380.00
91.1165 1478.00
91.1817 1394.00
91.2469 1442.00
91.3121 1348.00
91.3773 1335.00
91.4425 1458.00
91.5077 1334.00
91.5729 1317.00
91.6381 1312.00
91.7033 1322.00
91.7685 1311.00
91.8337 1345.00
91.8989 1285.00
91.9641 1352.00
92.0293 1273.00
92.0945 1296.00
92.1597 1281.00
92.2249 1338.00
92.2901 1280.00
92.3553 1281.00
92.4205 1328.00
92.4857 1349.00
92.5509 1376.00
92.6161 1363.00
92.6813 1371.00
92.7465 1361.00
92.8117 1288.00
92.8769 1298.00
92.9421 1297.00
93.0073 1302.00
93.0725 1343.00
93.1377 1304.00
93.2029 1325.00
93.2681 1327.00
93.3333 1319.00
93.3985 1286.00
93.4637 1345.00
93.5289 1369.00
93.5941 1403.00
93.6593 1354.00
93.7245 1379.00
93.7897 1336.00
93.8549 1347.00
93.9201 1385.00
93.9853 1375.00
94.0505 1423.00
94.1157 1390.00
94.1809 1329.00
94.2461 1358.00
94.3113 1302.00
94.3765 1362.00
94.4417 1431.00
94.5069 1392.00
94.5721 1421.00
94.6373 1447.00
94.7025 1341.00
94.7677 1512.00
94.8329 1499.00
94.8981 1633.00
94.9633 1495.00
95.0285 1408.00
95.0937 1408.00
95.1589 1394.00
95.2241 1416.00
95.2893 1329.00
95.3545 1324.00
95.4197 1289.00
95.4848 1352.00
95.55 1277.00
95.6153 1334.00
95.6804 1298.00
95.7456 1417.00
95.8108 1409.00
95.876 1366.00
95.9412 1298.00
96.0064 1340.00
96.0716 1347.00
96.1368 1435.00
96.202 1531.00
96.2672 1805.00
96.3324 1712.00
96.3976 1581.00
96.4628 1504.00
96.528 1434.00
96.5932 1572.00
96.6584 1531.00
96.7236 1440.00
96.7888 1354.00
96.854 1313.00
96.9192 1376.00
96.9844 1380.00
97.0496 1334.00
97.1148 1327.00
97.18 1381.00
97.2452 1345.00
97.3104 1486.00
97.3756 1542.00
97.4408 1687.00
97.506 1692.00
97.5712 1493.00
97.6364 1423.00
97.7016 1460.00
97.7668 1632.00
97.832 1406.00
97.8972 1423.00
97.9624 1343.00
98.0276 1376.00
98.0928 1421.00
98.158 1376.00
98.2232 1393.00
98.2884 1407.00
98.3536 1304.00
98.4188 1350.00
98.484 1488.00
98.5492 1546.00
98.6144 1573.00
98.6796 1381.00
98.7448 1386.00
98.81 1446.00
98.8752 1496.00
98.9404 1508.00
99.0056 1385.00
99.0708 1374.00
99.136 1393.00
99.2012 1358.00
99.2664 1308.00
99.3316 1360.00
99.3968 1320.00
99.462 1305.00
99.5272 1389.00
99.5924 1335.00
99.6576 1369.00
99.7228 1280.00
99.788 1325.00
99.8532 1329.00
99.9184 1335.00
99.9836 1404.00
99.9944 1274.00