File: data/xrd_creation/results/PG_2449-1.xy
9.903433 2630.00
9.968632 2663.00
10.0338 2610.00
10.099 2602.00
10.1642 2641.00
10.2294 2592.00
10.2946 2507.00
10.3598 2606.00
10.425 2445.00
10.4902 2515.00
10.5554 2464.00
10.6206 2474.00
10.6858 2459.00
10.751 2523.00
10.8162 2410.00
10.8814 2354.00
10.9466 2328.00
11.0118 2394.00
11.077 2400.00
11.1422 2365.00
11.2074 2307.00
11.2726 2355.00
11.3378 2210.00
11.403 2232.00
11.4682 2305.00
11.5334 2228.00
11.5986 2148.00
11.6638 2184.00
11.729 2246.00
11.7942 2194.00
11.8594 2198.00
11.9246 2211.00
11.9898 2154.00
12.055 2194.00
12.1202 2186.00
12.1854 2201.00
12.2506 2192.00
12.3158 2307.00
12.381 2303.00
12.4462 2359.00
12.5114 2511.00
12.5766 2745.00
12.6418 2822.00
12.707 2616.00
12.7722 2204.00
12.8374 2098.00
12.9026 2008.00
12.9678 2038.00
13.033 2052.00
13.0982 2054.00
13.1634 2115.00
13.2286 2075.00
13.2938 2057.00
13.359 2004.00
13.4242 2039.00
13.4894 2025.00
13.5546 1999.00
13.6198 2069.00
13.685 1927.00
13.7502 1917.00
13.8154 1987.00
13.8805 1904.00
13.9457 1854.00
14.0109 1911.00
14.0761 1972.00
14.1413 1953.00
14.2065 1898.00
14.2717 1881.00
14.3369 1963.00
14.4021 1887.00
14.4673 1957.00
14.5325 1892.00
14.5977 1898.00
14.6629 1918.00
14.7281 1960.00
14.7933 1811.00
14.8585 1869.00
14.9237 1879.00
14.9889 1905.00
15.0541 1948.00
15.1193 1871.00
15.1845 1813.00
15.2497 1910.00
15.3149 1809.00
15.3801 1868.00
15.4453 1776.00
15.5105 1812.00
15.5757 1800.00
15.6409 1921.00
15.7061 1797.00
15.7713 1819.00
15.8365 1772.00
15.9017 1844.00
15.9669 1753.00
16.0321 1748.00
16.0973 1831.00
16.1625 1743.00
16.2277 1790.00
16.2929 1810.00
16.3581 1748.00
16.4233 1782.00
16.4885 1779.00
16.5537 1790.00
16.6189 1733.00
16.6841 1745.00
16.7493 1780.00
16.8145 1772.00
16.8797 1803.00
16.9449 1701.00
17.0101 1800.00
17.0753 1882.00
17.1405 1911.00
17.2057 2051.00
17.2709 2139.00
17.3361 2258.00
17.4013 1928.00
17.4665 1791.00
17.5317 1766.00
17.5969 1698.00
17.6621 1691.00
17.7273 1724.00
17.7925 1758.00
17.8577 1686.00
17.9229 1698.00
17.9881 1624.00
18.0533 1623.00
18.1185 1600.00
18.1837 1692.00
18.2489 1706.00
18.3141 1712.00
18.3793 1582.00
18.4445 1622.00
18.5097 1622.00
18.5749 1639.00
18.6401 1604.00
18.7052 1667.00
18.7704 1555.00
18.8356 1637.00
18.9008 1674.00
18.966 1620.00
19.0312 1590.00
19.0964 1613.00
19.1616 1645.00
19.2268 1617.00
19.292 1681.00
19.3572 1668.00
19.4224 1619.00
19.4876 1705.00
19.5528 1671.00
19.618 1642.00
19.6832 1727.00
19.7484 1659.00
19.8136 1841.00
19.8788 2132.00
19.944 2494.00
20.0092 3463.00
20.0744 4944.00
20.1396 6653.00
20.2048 5135.00
20.27 2682.00
20.3352 1890.00
20.4004 1822.00
20.4656 1756.00
20.5308 1800.00
20.596 1711.00
20.6612 1839.00
20.7264 1782.00
20.7916 1789.00
20.8568 1901.00
20.922 2060.00
20.9872 2305.00
21.0524 2889.00
21.1176 3737.00
21.1828 5744.00
21.248 9376.00
21.3132 14793.00
21.3784 16969.00
21.4436 9971.00
21.5088 4296.00
21.574 2926.00
21.6392 2712.00
21.7044 2914.00
21.7696 2768.00
21.8348 2361.00
21.9 1900.00
21.9652 1875.00
22.0304 1662.00
22.0956 1729.00
22.1608 1730.00
22.226 1734.00
22.2912 1759.00
22.3564 1633.00
22.4216 1653.00
22.4868 1692.00
22.552 1691.00
22.6172 1693.00
22.6824 1817.00
22.7476 1751.00
22.8128 1723.00
22.878 1817.00
22.9432 1843.00
23.0084 1978.00
23.0736 2083.00
23.1388 2324.00
23.204 2813.00
23.2692 3980.00
23.3344 6242.00
23.3996 9873.00
23.4647 12942.00
23.5299 9671.00
23.5951 5366.00
23.6603 4116.00
23.7255 4333.00
23.7907 5298.00
23.8559 7555.00
23.9211 10908.00
23.9863 11741.00
24.0515 7999.00
24.1167 4640.00
24.1819 3332.00
24.2471 3090.00
24.3123 3179.00
24.3775 3209.00
24.4427 3863.00
24.5079 5078.00
24.5731 7779.00
24.6383 11497.00
24.7035 12694.00
24.7687 7838.00
24.8339 3894.00
24.8991 2923.00
24.9643 3049.00
25.0295 3650.00
25.0947 4505.00
25.1599 4070.00
25.2251 2708.00
25.2903 2025.00
25.3555 1808.00
25.4207 1718.00
25.4859 1748.00
25.5511 1662.00
25.6163 1640.00
25.6815 1606.00
25.7467 1627.00
25.8119 1580.00
25.8771 1574.00
25.9423 1608.00
26.0075 1544.00
26.0727 1602.00
26.1379 1578.00
26.2031 1695.00
26.2683 1650.00
26.3335 1747.00
26.3987 1647.00
26.4639 1684.00
26.5291 1729.00
26.5943 1937.00
26.6595 2297.00
26.7247 3269.00
26.7899 4892.00
26.8551 6350.00
26.9203 5179.00
26.9855 3472.00
27.0507 2489.00
27.1159 2242.00
27.1811 2041.00
27.2463 1837.00
27.3115 1679.00
27.3767 1592.00
27.4419 1530.00
27.5071 1596.00
27.5723 1710.00
27.6375 2045.00
27.7027 2916.00
27.7679 3946.00
27.8331 3545.00
27.8983 2320.00
27.9635 1679.00
28.0287 1600.00
28.0939 1445.00
28.1591 1414.00
28.2243 1386.00
28.2894 1427.00
28.3546 1410.00
28.4198 1397.00
28.485 1472.00
28.5502 1543.00
28.6154 1676.00
28.6806 1952.00
28.7458 1952.00
28.811 1965.00
28.8762 2079.00
28.9414 2306.00
29.0066 2296.00
29.0718 2418.00
29.137 2547.00
29.2022 2987.00
29.2674 3034.00
29.3326 2670.00
29.3978 2250.00
29.463 1873.00
29.5282 1603.00
29.5934 1418.00
29.6586 1431.00
29.7238 1304.00
29.789 1317.00
29.8542 1306.00
29.9194 1342.00
29.9846 1393.00
30.0498 1236.00
30.115 1255.00
30.1802 1377.00
30.2454 1263.00
30.3106 1336.00
30.3758 1312.00
30.441 1300.00
30.5062 1374.00
30.5714 1341.00
30.6366 1472.00
30.7018 1823.00
30.767 2496.00
30.8322 4120.00
30.8974 5678.00
30.9626 3891.00
31.0278 2166.00
31.093 1538.00
31.1582 1399.00
31.2234 1270.00
31.2886 1244.00
31.3538 1264.00
31.419 1254.00
31.4842 1167.00
31.5494 1188.00
31.6146 1202.00
31.6798 1180.00
31.745 1186.00
31.8102 1190.00
31.8754 1136.00
31.9406 1132.00
32.0058 1236.00
32.071 1182.00
32.1362 1300.00
32.2014 1419.00
32.2666 1503.00
32.3318 1448.00
32.397 1260.00
32.4622 1243.00
32.5274 1211.00
32.5926 1254.00
32.6578 1299.00
32.723 1267.00
32.7882 1325.00
32.8534 1365.00
32.9186 1370.00
32.9838 1620.00
33.0489 1792.00
33.1141 2177.00
33.1793 3194.00
33.2445 5367.00
33.3097 7108.00
33.3749 5787.00
33.4401 4062.00
33.5053 3432.00
33.5705 3728.00
33.6357 3600.00
33.7009 3323.00
33.7661 3163.00
33.8313 3910.00
33.8965 4518.00
33.9617 4633.00
34.0269 3935.00
34.0921 3354.00
34.1573 3437.00
34.2225 3862.00
34.2877 4205.00
34.3529 4749.00
34.4181 5375.00
34.4833 5628.00
34.5485 5154.00
34.6137 4536.00
34.6789 4208.00
34.7441 3549.00
34.8093 2759.00
34.8745 2170.00
34.9397 1820.00
35.0049 1541.00
35.0701 1387.00
35.1353 1287.00
35.2005 1296.00
35.2657 1274.00
35.3309 1238.00
35.3961 1215.00
35.4613 1143.00
35.5265 1211.00
35.5917 1258.00
35.6569 1222.00
35.7221 1417.00
35.7873 1437.00
35.8525 1441.00
35.9177 1475.00
35.9829 1450.00
36.0481 1444.00
36.1133 1314.00
36.1785 1304.00
36.2437 1377.00
36.3089 1192.00
36.3741 1143.00
36.4393 1099.00
36.5045 1059.00
36.5697 1089.00
36.6349 1029.00
36.7001 1073.00
36.7653 1100.00
36.8305 1221.00
36.8957 1404.00
36.9609 1504.00
37.0261 1435.00
37.0913 1435.00
37.1565 1514.00
37.2217 1605.00
37.2869 1604.00
37.3521 1465.00
37.4173 1341.00
37.4825 1197.00
37.5477 1083.00
37.6129 1051.00
37.6781 1088.00
37.7433 1134.00
37.8085 1508.00
37.8736 2144.00
37.9388 3105.00
38.004 2449.00
38.0692 1944.00
38.1344 1230.00
38.1996 984.00
38.2648 987.00
38.33 1013.00
38.3952 1192.00
38.4604 1697.00
38.5256 1547.00
38.5908 1361.00
38.656 996.00
38.7212 905.00
38.7864 925.00
38.8516 863.00
38.9168 850.00
38.982 891.00
39.0472 870.00
39.1124 857.00
39.1776 808.00
39.2428 846.00
39.308 869.00
39.3732 852.00
39.4384 883.00
39.5036 987.00
39.5688 1058.00
39.634 1370.00
39.6992 2027.00
39.7644 2545.00
39.8296 2048.00
39.8948 1566.00
39.96 1140.00
40.0252 965.00
40.0904 982.00
40.1556 922.00
40.2208 931.00
40.286 905.00
40.3512 889.00
40.4164 823.00
40.4816 935.00
40.5468 967.00
40.612 978.00
40.6772 930.00
40.7424 905.00
40.8076 919.00
40.8728 1004.00
40.938 1085.00
41.0032 1448.00
41.0684 2096.00
41.1336 3244.00
41.1988 2868.00
41.264 2232.00
41.3292 1587.00
41.3944 1272.00
41.4596 1181.00
41.5248 1061.00
41.59 1105.00
41.6552 1215.00
41.7204 1320.00
41.7856 1447.00
41.8508 1466.00
41.916 1400.00
41.9812 1374.00
42.0464 1543.00
42.1116 1697.00
42.1768 2294.00
42.242 2545.00
42.3072 2506.00
42.3724 2080.00
42.4376 1827.00
42.5028 1828.00
42.568 2075.00
42.6332 1681.00
42.6983 1499.00
42.7635 1230.00
42.8287 1220.00
42.8939 1321.00
42.9591 1446.00
43.0243 1640.00
43.0895 1942.00
43.1547 2028.00
43.2199 2136.00
43.2851 1873.00
43.3503 1817.00
43.4155 1467.00
43.4807 1247.00
43.5459 1176.00
43.6111 1102.00
43.6763 1060.00
43.7415 985.00
43.8067 991.00
43.8719 1020.00
43.9371 1145.00
44.0023 1116.00
44.0675 1025.00
44.1327 981.00
44.1979 953.00
44.2631 968.00
44.3283 894.00
44.3935 912.00
44.4587 1027.00
44.5239 1045.00
44.5891 1053.00
44.6543 1037.00
44.7195 989.00
44.7847 1022.00
44.8499 1106.00
44.9151 1239.00
44.9803 1820.00
45.0455 1977.00
45.1107 1704.00
45.1759 1513.00
45.2411 1220.00
45.3063 1202.00
45.3715 1162.00
45.4367 1223.00
45.5019 1415.00
45.5671 2102.00
45.6323 2484.00
45.6975 2158.00
45.7627 2040.00
45.8279 1733.00
45.8931 1465.00
45.9583 1342.00
46.0235 1109.00
46.0887 1095.00
46.1539 1097.00
46.2191 1104.00
46.2843 1185.00
46.3495 1270.00
46.4147 1135.00
46.4799 990.00
46.5451 898.00
46.6103 779.00
46.6755 805.00
46.7407 795.00
46.8059 767.00
46.8711 748.00
46.9363 721.00
47.0015 775.00
47.0667 824.00
47.1319 793.00
47.1971 810.00
47.2623 831.00
47.3275 850.00
47.3927 984.00
47.4579 1295.00
47.523 1778.00
47.5882 2462.00
47.6534 3209.00
47.7186 3429.00
47.7838 2467.00
47.849 1912.00
47.9142 1298.00
47.9794 1054.00
48.0446 1103.00
48.1098 1381.00
48.175 1433.00
48.2402 1208.00
48.3054 1124.00
48.3706 929.00
48.4358 990.00
48.501 1280.00
48.5662 1626.00
48.6314 1903.00
48.6966 2022.00
48.7618 1825.00
48.827 1392.00
48.8922 1085.00
48.9574 988.00
49.0226 1038.00
49.0878 987.00
49.153 1100.00
49.2182 1285.00
49.2834 1186.00
49.3486 1038.00
49.4138 969.00
49.479 852.00
49.5442 895.00
49.6094 955.00
49.6746 908.00
49.7398 932.00
49.805 1023.00
49.8702 1195.00
49.9354 1278.00
50.0006 1414.00
50.0658 1710.00
50.131 2472.00
50.1962 3108.00
50.2614 3155.00
50.3266 2811.00
50.3918 2341.00
50.457 1955.00
50.5222 1836.00
50.5874 1909.00
50.6526 1851.00
50.7178 1763.00
50.783 1638.00
50.8482 1720.00
50.9134 1737.00
50.9786 1963.00
51.0438 1974.00
51.109 1818.00
51.1742 1643.00
51.2394 1552.00
51.3046 1382.00
51.3698 1237.00
51.435 1148.00
51.5002 1089.00
51.5654 1320.00
51.6306 2030.00
51.6958 2077.00
51.761 1621.00
51.8262 1472.00
51.8914 985.00
51.9566 886.00
52.0218 844.00
52.087 859.00
52.1522 866.00
52.2174 873.00
52.2826 838.00
52.3477 808.00
52.4129 834.00
52.4781 873.00
52.5433 1120.00
52.6085 1504.00
52.6737 1379.00
52.7389 1318.00
52.8041 1410.00
52.8693 1389.00
52.9345 1037.00
52.9997 1065.00
53.0649 949.00
53.1301 1092.00
53.1953 1255.00
53.2605 1848.00
53.3257 1664.00
53.3909 1670.00
53.4561 1410.00
53.5213 1209.00
53.5865 1124.00
53.6517 1192.00
53.7169 1270.00
53.7821 1541.00
53.8473 1495.00
53.9125 1436.00
53.9777 1311.00
54.0429 1164.00
54.1081 1371.00
54.1733 1726.00
54.2385 2167.00
54.3037 2144.00
54.3689 1963.00
54.4341 2227.00
54.4993 2104.00
54.5645 1949.00
54.6297 1761.00
54.6949 1570.00
54.7601 1473.00
54.8253 1493.00
54.8905 1671.00
54.9557 1884.00
55.0209 1887.00
55.0861 1905.00
55.1513 1722.00
55.2165 1622.00
55.2817 1569.00
55.3469 1672.00
55.4121 1669.00
55.4773 1669.00
55.5425 1920.00
55.6077 2066.00
55.6729 1921.00
55.7381 1934.00
55.8033 2028.00
55.8685 1974.00
55.9337 2017.00
55.9989 2302.00
56.0641 2414.00
56.1293 2321.00
56.1945 2467.00
56.2597 2325.00
56.3249 2220.00
56.3901 2100.00
56.4553 2069.00
56.5205 2105.00
56.5857 1740.00
56.6509 1612.00
56.7161 1294.00
56.7813 1132.00
56.8465 1110.00
56.9117 1104.00
56.9769 1110.00
57.042 1026.00
57.1073 933.00
57.1724 837.00
57.2376 848.00
57.3028 774.00
57.368 761.00
57.4332 794.00
57.4984 794.00
57.5636 733.00
57.6288 810.00
57.694 765.00
57.7592 939.00
57.8244 1320.00
57.8896 1232.00
57.9548 1069.00
58.02 1071.00
58.0852 898.00
58.1504 833.00
58.2156 803.00
58.2808 806.00
58.346 808.00
58.4112 800.00
58.4764 858.00
58.5416 826.00
58.6068 829.00
58.672 864.00
58.7372 788.00
58.8024 799.00
58.8676 857.00
58.9328 893.00
58.998 964.00
59.0632 968.00
59.1284 1222.00
59.1936 1276.00
59.2588 1113.00
59.324 1124.00
59.3892 1055.00
59.4544 966.00
59.5196 1031.00
59.5848 1162.00
59.65 1154.00
59.7152 1046.00
59.7804 1036.00
59.8456 1001.00
59.9108 949.00
59.976 948.00
60.0412 1026.00
60.1064 1010.00
60.1716 1132.00
60.2368 1208.00
60.302 1178.00
60.3672 1333.00
60.4324 1305.00
60.4976 1335.00
60.5628 1430.00
60.628 1440.00
60.6932 1446.00
60.7584 1408.00
60.8236 1302.00
60.8888 1313.00
60.954 1274.00
61.0192 1174.00
61.0844 1096.00
61.1496 1174.00
61.2148 1149.00
61.28 1254.00
61.3452 1205.00
61.4104 1288.00
61.4756 1417.00
61.5408 1682.00
61.606 1640.00
61.6712 1583.00
61.7364 1622.00
61.8016 1678.00
61.8667 1617.00
61.932 1766.00
61.9971 1950.00
62.0623 1941.00
62.1275 1824.00
62.1927 1840.00
62.2579 1873.00
62.3231 1751.00
62.3883 1772.00
62.4535 1820.00
62.5187 1952.00
62.5839 2077.00
62.6491 2151.00
62.7143 2002.00
62.7795 1711.00
62.8447 1595.00
62.9099 1468.00
62.9751 1318.00
63.0403 1309.00
63.1055 1319.00
63.1707 1235.00
63.2359 1158.00
63.3011 1214.00
63.3663 1217.00
63.4315 1173.00
63.4967 1269.00
63.5619 1439.00
63.6271 1597.00
63.6923 2254.00
63.7575 2541.00
63.8227 1953.00
63.8879 1925.00
63.9531 1647.00
64.0183 1201.00
64.0835 1074.00
64.1487 889.00
64.2139 783.00
64.2791 681.00
64.3443 663.00
64.4095 702.00
64.4747 712.00
64.5399 778.00
64.6051 735.00
64.6703 733.00
64.7355 683.00
64.8007 692.00
64.8659 729.00
64.9311 729.00
64.9963 708.00
65.0615 790.00
65.1267 918.00
65.1919 875.00
65.2571 751.00
65.3223 797.00
65.3875 790.00
65.4527 712.00
65.5179 776.00
65.5831 838.00
65.6483 710.00
65.7135 735.00
65.7787 779.00
65.8439 695.00
65.9091 686.00
65.9743 647.00
66.0395 689.00
66.1047 641.00
66.1699 654.00
66.2351 681.00
66.3003 715.00
66.3655 734.00
66.4307 792.00
66.4959 895.00
66.561 1146.00
66.6263 1434.00
66.6915 1332.00
66.7566 1142.00
66.8218 1166.00
66.887 1057.00
66.9522 1060.00
67.0174 1175.00
67.0826 1110.00
67.1478 1025.00
67.213 1062.00
67.2782 1003.00
67.3434 867.00
67.4086 974.00
67.4738 862.00
67.539 860.00
67.6042 849.00
67.6694 849.00
67.7346 846.00
67.7998 823.00
67.865 961.00
67.9302 940.00
67.9954 1056.00
68.0606 1155.00
68.1258 1118.00
68.191 1619.00
68.2562 1627.00
68.3214 1129.00
68.3866 1259.00
68.4518 1157.00
68.517 848.00
68.5822 764.00
68.6474 721.00
68.7126 768.00
68.7778 964.00
68.843 1026.00
68.9082 907.00
68.9734 846.00
69.0386 844.00
69.1038 711.00
69.169 705.00
69.2342 652.00
69.2994 720.00
69.3646 730.00
69.4298 716.00
69.495 731.00
69.5602 746.00
69.6254 734.00
69.6906 695.00
69.7558 692.00
69.821 757.00
69.8862 851.00
69.9514 800.00
70.0166 770.00
70.0818 826.00
70.147 813.00
70.2122 768.00
70.2774 751.00
70.3426 649.00
70.4078 793.00
70.473 752.00
70.5382 724.00
70.6034 683.00
70.6686 765.00
70.7338 784.00
70.799 828.00
70.8642 782.00
70.9294 801.00
70.9946 796.00
71.0598 773.00
71.125 777.00
71.1902 970.00
71.2554 1030.00
71.3205 866.00
71.3858 807.00
71.451 850.00
71.5162 823.00
71.5813 811.00
71.6465 836.00
71.7117 816.00
71.7769 894.00
71.8421 1133.00
71.9073 1217.00
71.9725 983.00
72.0377 1031.00
72.1029 1082.00
72.1681 992.00
72.2333 954.00
72.2985 995.00
72.3637 820.00
72.4289 858.00
72.4941 809.00
72.5593 839.00
72.6245 920.00
72.6897 891.00
72.7549 793.00
72.8201 838.00
72.8853 839.00
72.9505 802.00
73.0157 710.00
73.0809 723.00
73.1461 671.00
73.2113 668.00
73.2765 656.00
73.3417 676.00
73.4069 707.00
73.4721 731.00
73.5373 713.00
73.6025 758.00
73.6677 803.00
73.7329 770.00
73.7981 769.00
73.8633 792.00
73.9285 855.00
73.9937 1044.00
74.0589 1096.00
74.1241 969.00
74.1893 928.00
74.2545 872.00
74.3197 812.00
74.3849 754.00
74.4501 762.00
74.5153 694.00
74.5805 731.00
74.6457 775.00
74.7109 709.00
74.7761 680.00
74.8413 708.00
74.9065 703.00
74.9717 693.00
75.0369 698.00
75.1021 767.00
75.1673 786.00
75.2325 677.00
75.2977 655.00
75.3629 714.00
75.4281 774.00
75.4933 656.00
75.5585 732.00
75.6237 784.00
75.6889 962.00
75.7541 1108.00
75.8193 1028.00
75.8845 866.00
75.9497 902.00
76.0149 977.00
76.0801 928.00
76.1452 906.00
76.2104 1088.00
76.2756 1014.00
76.3409 1074.00
76.406 1236.00
76.4712 1159.00
76.5364 1160.00
76.6016 1153.00
76.6668 1079.00
76.732 1168.00
76.7972 1103.00
76.8624 1084.00
76.9276 1140.00
76.9928 1152.00
77.058 1178.00
77.1232 1231.00
77.1884 1213.00
77.2536 1180.00
77.3188 1108.00
77.384 1015.00
77.4492 968.00
77.5144 919.00
77.5796 898.00
77.6448 815.00
77.71 852.00
77.7752 793.00
77.8404 770.00
77.9056 752.00
77.9708 792.00
78.036 861.00
78.1012 866.00
78.1664 773.00
78.2316 726.00
78.2968 717.00
78.362 690.00
78.4272 691.00
78.4924 654.00
78.5576 640.00
78.6228 716.00
78.688 802.00
78.7532 797.00
78.8184 903.00
78.8836 937.00
78.9488 842.00
79.014 766.00
79.0792 771.00
79.1444 716.00
79.2096 636.00
79.2748 595.00
79.34 657.00
79.4052 663.00
79.4704 617.00
79.5356 619.00
79.6008 578.00
79.666 597.00
79.7312 653.00
79.7964 653.00
79.8616 607.00
79.9268 590.00
79.992 647.00
80.0572 596.00
80.1224 640.00
80.1876 629.00
80.2528 632.00
80.318 708.00
80.3832 832.00
80.4484 888.00
80.5136 810.00
80.5788 890.00
80.644 820.00
80.7092 786.00
80.7744 804.00
80.8396 773.00
80.9048 723.00
80.9699 689.00
81.0351 744.00
81.1003 721.00
81.1655 757.00
81.2307 803.00
81.2959 814.00
81.3611 903.00
81.4263 840.00
81.4915 894.00
81.5567 882.00
81.6219 901.00
81.6871 852.00
81.7523 894.00
81.8175 921.00
81.8827 912.00
81.9479 817.00
82.0131 836.00
82.0783 730.00
82.1435 722.00
82.2087 717.00
82.2739 694.00
82.3391 699.00
82.4043 711.00
82.4695 708.00
82.5347 704.00
82.5999 692.00
82.6651 697.00
82.7303 776.00
82.7955 781.00
82.8607 854.00
82.9259 959.00
82.9911 807.00
83.0563 897.00
83.1215 887.00
83.1867 961.00
83.2519 984.00
83.3171 810.00
83.3823 794.00
83.4475 799.00
83.5127 840.00
83.5779 856.00
83.6431 824.00
83.7083 807.00
83.7735 847.00
83.8387 884.00
83.9039 898.00
83.9691 853.00
84.0343 796.00
84.0995 791.00
84.1647 716.00
84.2299 734.00
84.2951 667.00
84.3603 718.00
84.4255 707.00
84.4907 698.00
84.5559 885.00
84.6211 845.00
84.6863 869.00
84.7515 919.00
84.8167 888.00
84.8819 785.00
84.9471 765.00
85.0123 859.00
85.0775 791.00
85.1427 829.00
85.2079 758.00
85.2731 790.00
85.3383 868.00
85.4035 802.00
85.4687 701.00
85.5339 708.00
85.5991 695.00
85.6643 659.00
85.7295 663.00
85.7946 588.00
85.8598 661.00
85.925 668.00
85.9903 743.00
86.0554 769.00
86.1206 762.00
86.1858 769.00
86.251 784.00
86.3162 826.00
86.3814 810.00
86.4466 788.00
86.5118 803.00
86.577 814.00
86.6422 831.00
86.7074 787.00
86.7726 780.00
86.8378 841.00
86.903 775.00
86.9682 747.00
87.0334 893.00
87.0986 900.00
87.1638 1027.00
87.229 1023.00
87.2942 904.00
87.3594 938.00
87.4246 958.00
87.4898 997.00
87.555 894.00
87.6202 852.00
87.6854 877.00
87.7506 910.00
87.8158 861.00
87.881 872.00
87.9462 885.00
88.0114 797.00
88.0766 783.00
88.1418 793.00
88.207 788.00
88.2722 796.00
88.3374 759.00
88.4026 803.00
88.4678 808.00
88.533 781.00
88.5982 888.00
88.6634 817.00
88.7286 863.00
88.7938 789.00
88.859 743.00
88.9242 746.00
88.9894 800.00
89.0546 716.00
89.1198 642.00
89.185 598.00
89.2502 629.00
89.3154 623.00
89.3806 620.00
89.4458 669.00
89.511 647.00
89.5762 663.00
89.6414 589.00
89.7066 653.00
89.7718 625.00
89.837 673.00
89.9022 667.00
89.9674 693.00
90.0326 667.00
90.0978 595.00
90.163 605.00
90.2282 539.00
90.2934 603.00
90.3586 588.00
90.4238 579.00
90.489 583.00
90.5542 669.00
90.6193 658.00
90.6845 616.00
90.7497 648.00
90.8149 616.00
90.8801 706.00
90.9453 706.00
91.0105 725.00
91.0757 738.00
91.1409 722.00
91.2061 713.00
91.2713 667.00
91.3365 681.00
91.4017 714.00
91.4669 650.00
91.5321 677.00
91.5973 653.00
91.6625 658.00
91.7277 615.00
91.7929 647.00
91.8581 691.00
91.9233 761.00
91.9885 745.00
92.0537 693.00
92.1189 708.00
92.1841 706.00
92.2493 747.00
92.3145 788.00
92.3797 867.00
92.4449 851.00
92.5101 796.00
92.5753 728.00
92.6405 658.00
92.7057 737.00
92.7709 682.00
92.8361 656.00
92.9013 616.00
92.9665 556.00
93.0317 590.00
93.0969 563.00
93.1621 592.00
93.2273 570.00
93.2925 613.00
93.3577 591.00
93.4229 593.00
93.4881 591.00
93.5533 622.00
93.6185 623.00
93.6837 620.00
93.7489 674.00
93.8141 670.00
93.8793 723.00
93.9445 739.00
94.0097 832.00
94.0749 714.00
94.1401 696.00
94.2053 706.00
94.2705 742.00
94.3357 671.00
94.4009 685.00
94.4661 650.00
94.5313 653.00
94.5965 709.00
94.6617 739.00
94.7269 688.00
94.7921 688.00
94.8573 656.00
94.9225 686.00
94.9877 701.00
95.0529 743.00
95.1181 741.00
95.1833 639.00
95.2485 592.00
95.3137 613.00
95.3789 682.00
95.444 652.00
95.5092 580.00
95.5744 563.00
95.6396 618.00
95.7048 591.00
95.77 548.00
95.8352 646.00
95.9004 615.00
95.9656 617.00
96.0308 648.00
96.096 687.00
96.1612 728.00
96.2264 847.00
96.2916 843.00
96.3568 855.00
96.422 759.00
96.4872 781.00
96.5524 787.00
96.6176 841.00
96.6828 789.00
96.748 715.00
96.8132 658.00
96.8784 691.00
96.9436 693.00
97.0088 736.00
97.074 677.00
97.1392 731.00
97.2044 641.00
97.2696 652.00
97.3348 692.00
97.4 637.00
97.4652 613.00
97.5304 642.00
97.5956 628.00
97.6608 618.00
97.726 610.00
97.7912 571.00
97.8564 623.00
97.9216 693.00
97.9868 732.00
98.052 655.00
98.1172 600.00
98.1824 603.00
98.2476 622.00
98.3128 583.00
98.378 592.00
98.4432 540.00
98.5084 580.00
98.5736 533.00
98.6388 529.00
98.704 567.00
98.7692 538.00
98.8344 523.00
98.8996 545.00
98.9648 567.00
99.03 589.00
99.0952 567.00
99.1604 540.00
99.2256 602.00
99.2908 618.00
99.356 552.00
99.4212 533.00
99.4864 542.00
99.5516 551.00
99.6168 550.00
99.682 570.00
99.7472 538.00
99.8124 513.00
99.8776 525.00
99.9428 525.00
100.008 515.00
100.073 552.00
100.095 516.00