File: data/xrd_creation/results/PG_2234-1.xy
9.903433 3125.00
9.968632 3174.00
10.0338 3095.00
10.099 3048.00
10.1642 3119.00
10.2294 3129.00
10.2946 3105.00
10.3598 3081.00
10.425 2991.00
10.4902 2939.00
10.5554 3083.00
10.6206 2959.00
10.6858 2865.00
10.751 3130.00
10.8162 2989.00
10.8814 3001.00
10.9466 3117.00
11.0118 2943.00
11.077 2838.00
11.1422 2949.00
11.2074 2807.00
11.2726 2927.00
11.3378 2837.00
11.403 2784.00
11.4682 2873.00
11.5334 2722.00
11.5986 2735.00
11.6638 2806.00
11.729 2806.00
11.7942 2809.00
11.8594 2655.00
11.9246 2679.00
11.9898 2713.00
12.055 2831.00
12.1202 2814.00
12.1854 2744.00
12.2506 2612.00
12.3158 2841.00
12.381 2729.00
12.4462 2650.00
12.5114 2726.00
12.5766 2673.00
12.6418 2621.00
12.707 2686.00
12.7722 2657.00
12.8374 2586.00
12.9026 2589.00
12.9678 2524.00
13.033 2487.00
13.0982 2581.00
13.1634 2660.00
13.2286 2602.00
13.2938 2588.00
13.359 2634.00
13.4242 2659.00
13.4894 2570.00
13.5546 2542.00
13.6198 2632.00
13.685 2666.00
13.7502 2589.00
13.8154 2682.00
13.8805 2732.00
13.9457 2729.00
14.0109 2762.00
14.0761 2675.00
14.1413 2737.00
14.2065 2800.00
14.2717 2781.00
14.3369 2762.00
14.4021 2780.00
14.4673 2731.00
14.5325 2775.00
14.5977 2703.00
14.6629 2655.00
14.7281 2756.00
14.7933 2698.00
14.8585 2663.00
14.9237 2687.00
14.9889 2646.00
15.0541 2655.00
15.1193 2533.00
15.1845 2632.00
15.2497 2547.00
15.3149 2605.00
15.3801 2579.00
15.4453 2664.00
15.5105 2514.00
15.5757 2686.00
15.6409 2671.00
15.7061 2626.00
15.7713 2602.00
15.8365 2608.00
15.9017 2650.00
15.9669 2569.00
16.0321 2656.00
16.0973 2579.00
16.1625 2649.00
16.2277 2559.00
16.2929 2565.00
16.3581 2557.00
16.4233 2561.00
16.4885 2505.00
16.5537 2612.00
16.6189 2694.00
16.6841 2687.00
16.7493 2792.00
16.8145 2876.00
16.8797 3108.00
16.9449 3371.00
17.0101 3725.00
17.0753 4304.00
17.1405 5029.00
17.2057 5463.00
17.2709 5220.00
17.3361 4206.00
17.4013 3265.00
17.4665 2806.00
17.5317 2550.00
17.5969 2435.00
17.6621 2594.00
17.7273 2458.00
17.7925 2421.00
17.8577 2469.00
17.9229 2388.00
17.9881 2413.00
18.0533 2388.00
18.1185 2249.00
18.1837 2440.00
18.2489 2306.00
18.3141 2291.00
18.3793 2314.00
18.4445 2229.00
18.5097 2338.00
18.5749 2346.00
18.6401 2191.00
18.7052 2306.00
18.7704 2251.00
18.8356 2314.00
18.9008 2257.00
18.966 2233.00
19.0312 2259.00
19.0964 2184.00
19.1616 2243.00
19.2268 2126.00
19.292 2120.00
19.3572 2143.00
19.4224 2159.00
19.4876 2110.00
19.5528 2174.00
19.618 2088.00
19.6832 2123.00
19.7484 2163.00
19.8136 2101.00
19.8788 2135.00
19.944 2185.00
20.0092 2191.00
20.0744 2126.00
20.1396 2158.00
20.2048 2158.00
20.27 2111.00
20.3352 2154.00
20.4004 2123.00
20.4656 2072.00
20.5308 2174.00
20.596 2079.00
20.6612 2128.00
20.7264 2194.00
20.7916 2112.00
20.8568 2082.00
20.922 2003.00
20.9872 2107.00
21.0524 2114.00
21.1176 2225.00
21.1828 2084.00
21.248 2126.00
21.3132 2302.00
21.3784 2247.00
21.4436 2312.00
21.5088 2355.00
21.574 2467.00
21.6392 2461.00
21.7044 2364.00
21.7696 2407.00
21.8348 2353.00
21.9 2345.00
21.9652 2411.00
22.0304 2570.00
22.0956 2670.00
22.1608 2823.00
22.226 3197.00
22.2912 3971.00
22.3564 4610.00
22.4216 5984.00
22.4868 7910.00
22.552 10281.00
22.6172 12080.00
22.6824 11530.00
22.7476 8178.00
22.8128 5089.00
22.878 3540.00
22.9432 3025.00
23.0084 2745.00
23.0736 2803.00
23.1388 2725.00
23.204 2987.00
23.2692 3334.00
23.3344 3914.00
23.3996 4724.00
23.4647 6240.00
23.5299 7851.00
23.5951 10008.00
23.6603 11008.00
23.7255 9667.00
23.7907 7013.00
23.8559 4471.00
23.9211 3343.00
23.9863 2876.00
24.0515 2538.00
24.1167 2353.00
24.1819 2391.00
24.2471 2263.00
24.3123 2272.00
24.3775 2315.00
24.4427 2290.00
24.5079 2327.00
24.5731 2244.00
24.6383 2373.00
24.7035 2358.00
24.7687 2498.00
24.8339 2475.00
24.8991 2749.00
24.9643 3276.00
25.0295 3740.00
25.0947 4595.00
25.1599 5616.00
25.2251 6512.00
25.2903 6780.00
25.3555 5770.00
25.4207 4052.00
25.4859 3076.00
25.5511 2578.00
25.6163 2325.00
25.6815 2293.00
25.7467 2303.00
25.8119 2177.00
25.8771 2173.00
25.9423 2189.00
26.0075 2148.00
26.0727 2118.00
26.1379 2082.00
26.2031 1938.00
26.2683 2078.00
26.3335 2012.00
26.3987 2099.00
26.4639 2050.00
26.5291 2128.00
26.5943 2099.00
26.6595 2050.00
26.7247 2092.00
26.7899 1971.00
26.8551 1971.00
26.9203 2063.00
26.9855 1994.00
27.0507 2013.00
27.1159 1991.00
27.1811 1953.00
27.2463 2052.00
27.3115 1971.00
27.3767 1991.00
27.4419 1960.00
27.5071 2098.00
27.5723 1989.00
27.6375 1938.00
27.7027 1916.00
27.7679 1950.00
27.8331 1900.00
27.8983 1945.00
27.9635 1896.00
28.0287 1937.00
28.0939 1797.00
28.1591 1950.00
28.2243 1950.00
28.2894 1902.00
28.3546 1885.00
28.4198 1958.00
28.485 1964.00
28.5502 1878.00
28.6154 1922.00
28.6806 2007.00
28.7458 1907.00
28.811 1980.00
28.8762 2121.00
28.9414 2149.00
29.0066 2415.00
29.0718 2671.00
29.137 3022.00
29.2022 3567.00
29.2674 3997.00
29.3326 3914.00
29.3978 3847.00
29.463 3674.00
29.5282 3387.00
29.5934 2839.00
29.6586 2369.00
29.7238 2159.00
29.789 1927.00
29.8542 1906.00
29.9194 1817.00
29.9846 1721.00
30.0498 1638.00
30.115 1854.00
30.1802 1670.00
30.2454 1603.00
30.3106 1662.00
30.3758 1729.00
30.441 1673.00
30.5062 1635.00
30.5714 1654.00
30.6366 1678.00
30.7018 1649.00
30.767 1664.00
30.8322 1772.00
30.8974 1828.00
30.9626 1817.00
31.0278 1757.00
31.093 1592.00
31.1582 1496.00
31.2234 1510.00
31.2886 1473.00
31.3538 1526.00
31.419 1513.00
31.4842 1531.00
31.5494 1440.00
31.6146 1511.00
31.6798 1513.00
31.745 1579.00
31.8102 1577.00
31.8754 1526.00
31.9406 1617.00
32.0058 1674.00
32.071 1668.00
32.1362 1689.00
32.2014 1527.00
32.2666 1502.00
32.3318 1441.00
32.397 1365.00
32.4622 1391.00
32.5274 1346.00
32.5926 1364.00
32.6578 1318.00
32.723 1372.00
32.7882 1319.00
32.8534 1345.00
32.9186 1374.00
32.9838 1345.00
33.0489 1410.00
33.1141 1322.00
33.1793 1365.00
33.2445 1452.00
33.3097 1496.00
33.3749 1436.00
33.4401 1377.00
33.5053 1459.00
33.5705 1562.00
33.6357 1642.00
33.7009 1678.00
33.7661 1986.00
33.8313 2385.00
33.8965 2784.00
33.9617 3498.00
34.0269 4570.00
34.0921 5804.00
34.1573 7252.00
34.2225 8208.00
34.2877 7581.00
34.3529 6352.00
34.4181 5543.00
34.4833 5131.00
34.5485 4753.00
34.6137 3456.00
34.6789 2599.00
34.7441 1865.00
34.8093 1699.00
34.8745 1422.00
34.9397 1445.00
35.0049 1357.00
35.0701 1275.00
35.1353 1332.00
35.2005 1306.00
35.2657 1276.00
35.3309 1204.00
35.3961 1258.00
35.4613 1253.00
35.5265 1227.00
35.5917 1255.00
35.6569 1204.00
35.7221 1233.00
35.7873 1272.00
35.8525 1236.00
35.9177 1227.00
35.9829 1258.00
36.0481 1221.00
36.1133 1274.00
36.1785 1221.00
36.2437 1225.00
36.3089 1210.00
36.3741 1302.00
36.4393 1289.00
36.5045 1280.00
36.5697 1286.00
36.6349 1346.00
36.7001 1383.00
36.7653 1666.00
36.8305 1896.00
36.8957 2336.00
36.9609 2742.00
37.0261 3420.00
37.0913 4282.00
37.1565 5244.00
37.2217 5633.00
37.2869 5212.00
37.3521 4146.00
37.4173 3166.00
37.4825 2214.00
37.5477 1800.00
37.6129 1576.00
37.6781 1470.00
37.7433 1350.00
37.8085 1277.00
37.8736 1269.00
37.9388 1272.00
38.004 1268.00
38.0692 1193.00
38.1344 1252.00
38.1996 1238.00
38.2648 1225.00
38.33 1196.00
38.3952 1333.00
38.4604 1300.00
38.5256 1319.00
38.5908 1325.00
38.656 1370.00
38.7212 1496.00
38.7864 1560.00
38.8516 1710.00
38.9168 1842.00
38.982 1962.00
39.0472 2028.00
39.1124 2096.00
39.1776 2115.00
39.2428 1955.00
39.308 1812.00
39.3732 1669.00
39.4384 1592.00
39.5036 1444.00
39.5688 1277.00
39.634 1304.00
39.6992 1273.00
39.7644 1228.00
39.8296 1155.00
39.8948 1227.00
39.96 1145.00
40.0252 1131.00
40.0904 1111.00
40.1556 1078.00
40.2208 1080.00
40.286 1077.00
40.3512 1083.00
40.4164 1028.00
40.4816 1106.00
40.5468 1040.00
40.612 1024.00
40.6772 1014.00
40.7424 1063.00
40.8076 933.00
40.8728 1014.00
40.938 1009.00
41.0032 1026.00
41.0684 1048.00
41.1336 959.00
41.1988 992.00
41.264 1020.00
41.3292 1020.00
41.3944 971.00
41.4596 953.00
41.5248 954.00
41.59 935.00
41.6552 966.00
41.7204 976.00
41.7856 970.00
41.8508 931.00
41.916 984.00
41.9812 1005.00
42.0464 1032.00
42.1116 1092.00
42.1768 1051.00
42.242 985.00
42.3072 1007.00
42.3724 953.00
42.4376 885.00
42.5028 836.00
42.568 904.00
42.6332 880.00
42.6983 968.00
42.7635 894.00
42.8287 857.00
42.8939 822.00
42.9591 862.00
43.0243 830.00
43.0895 861.00
43.1547 854.00
43.2199 913.00
43.2851 868.00
43.3503 862.00
43.4155 866.00
43.4807 895.00
43.5459 933.00
43.6111 1001.00
43.6763 997.00
43.7415 1081.00
43.8067 1125.00
43.8719 1163.00
43.9371 1088.00
44.0023 1006.00
44.0675 975.00
44.1327 874.00
44.1979 783.00
44.2631 841.00
44.3283 808.00
44.3935 791.00
44.4587 768.00
44.5239 758.00
44.5891 748.00
44.6543 778.00
44.7195 783.00
44.7847 775.00
44.8499 762.00
44.9151 744.00
44.9803 738.00
45.0455 756.00
45.1107 750.00
45.1759 743.00
45.2411 743.00
45.3063 731.00
45.3715 771.00
45.4367 745.00
45.5019 762.00
45.5671 738.00
45.6323 733.00
45.6975 745.00
45.7627 707.00
45.8279 762.00
45.8931 751.00
45.9583 686.00
46.0235 757.00
46.0887 746.00
46.1539 722.00
46.2191 711.00
46.2843 703.00
46.3495 729.00
46.4147 702.00
46.4799 733.00
46.5451 720.00
46.6103 740.00
46.6755 755.00
46.7407 685.00
46.8059 694.00
46.8711 703.00
46.9363 709.00
47.0015 710.00
47.0667 699.00
47.1319 733.00
47.1971 654.00
47.2623 667.00
47.3275 731.00
47.3927 710.00
47.4579 675.00
47.523 702.00
47.5882 711.00
47.6534 742.00
47.7186 717.00
47.7838 754.00
47.849 736.00
47.9142 767.00
47.9794 721.00
48.0446 797.00
48.1098 785.00
48.175 779.00
48.2402 722.00
48.3054 764.00
48.3706 732.00
48.4358 725.00
48.501 812.00
48.5662 713.00
48.6314 758.00
48.6966 764.00
48.7618 734.00
48.827 785.00
48.8922 713.00
48.9574 711.00
49.0226 748.00
49.0878 715.00
49.153 707.00
49.2182 719.00
49.2834 719.00
49.3486 734.00
49.4138 756.00
49.479 780.00
49.5442 768.00
49.6094 786.00
49.6746 843.00
49.7398 928.00
49.805 852.00
49.8702 862.00
49.9354 760.00
50.0006 713.00
50.0658 702.00
50.131 711.00
50.1962 710.00
50.2614 690.00
50.3266 708.00
50.3918 744.00
50.457 666.00
50.5222 628.00
50.5874 772.00
50.6526 723.00
50.7178 698.00
50.783 790.00
50.8482 845.00
50.9134 890.00
50.9786 1038.00
51.0438 1269.00
51.109 1481.00
51.1742 1672.00
51.2394 1907.00
51.3046 1973.00
51.3698 1906.00
51.435 1783.00
51.5002 1613.00
51.5654 1425.00
51.6306 1387.00
51.6958 1231.00
51.761 1279.00
51.8262 1365.00
51.8914 1322.00
51.9566 1194.00
52.0218 918.00
52.087 828.00
52.1522 727.00
52.2174 669.00
52.2826 718.00
52.3477 663.00
52.4129 644.00
52.4781 673.00
52.5433 710.00
52.6085 685.00
52.6737 624.00
52.7389 687.00
52.8041 668.00
52.8693 600.00
52.9345 601.00
52.9997 611.00
53.0649 624.00
53.1301 603.00
53.1953 628.00
53.2605 613.00
53.3257 621.00
53.3909 614.00
53.4561 595.00
53.5213 648.00
53.5865 628.00
53.6517 645.00
53.7169 599.00
53.7821 624.00
53.8473 617.00
53.9125 648.00
53.9777 639.00
54.0429 608.00
54.1081 598.00
54.1733 569.00
54.2385 578.00
54.3037 631.00
54.3689 607.00
54.4341 631.00
54.4993 712.00
54.5645 724.00
54.6297 661.00
54.6949 699.00
54.7601 786.00
54.8253 853.00
54.8905 856.00
54.9557 776.00
55.0209 708.00
55.0861 674.00
55.1513 659.00
55.2165 568.00
55.2817 589.00
55.3469 577.00
55.4121 572.00
55.4773 601.00
55.5425 580.00
55.6077 576.00
55.6729 565.00
55.7381 626.00
55.8033 574.00
55.8685 620.00
55.9337 699.00
55.9989 689.00
56.0641 718.00
56.1293 722.00
56.1945 706.00
56.2597 665.00
56.3249 642.00
56.3901 642.00
56.4553 590.00
56.5205 571.00
56.5857 583.00
56.6509 558.00
56.7161 563.00
56.7813 579.00
56.8465 580.00
56.9117 642.00
56.9769 569.00
57.042 607.00
57.1073 649.00
57.1724 757.00
57.2376 698.00
57.3028 729.00
57.368 820.00
57.4332 766.00
57.4984 886.00
57.5636 762.00
57.6288 749.00
57.694 687.00
57.7592 698.00
57.8244 654.00
57.8896 603.00
57.9548 672.00
58.02 593.00
58.0852 668.00
58.1504 622.00
58.2156 729.00
58.2808 655.00
58.346 673.00
58.4112 650.00
58.4764 661.00
58.5416 649.00
58.6068 607.00
58.672 693.00
58.7372 642.00
58.8024 718.00
58.8676 728.00
58.9328 777.00
58.998 813.00
59.0632 883.00
59.1284 840.00
59.1936 831.00
59.2588 847.00
59.324 839.00
59.3892 734.00
59.4544 698.00
59.5196 673.00
59.5848 737.00
59.65 768.00
59.7152 754.00
59.7804 756.00
59.8456 771.00
59.9108 794.00
59.976 866.00
60.0412 818.00
60.1064 759.00
60.1716 765.00
60.2368 787.00
60.302 836.00
60.3672 871.00
60.4324 935.00
60.4976 1069.00
60.5628 1136.00
60.628 1305.00
60.6932 1423.00
60.7584 1467.00
60.8236 1548.00
60.8888 1396.00
60.954 1579.00
61.0192 1566.00
61.0844 1633.00
61.1496 1776.00
61.2148 1997.00
61.28 2198.00
61.3452 2062.00
61.4104 1812.00
61.4756 1610.00
61.5408 1221.00
61.606 995.00
61.6712 811.00
61.7364 802.00
61.8016 722.00
61.8667 748.00
61.932 745.00
61.9971 753.00
62.0623 726.00
62.1275 698.00
62.1927 673.00
62.2579 686.00
62.3231 651.00
62.3883 617.00
62.4535 587.00
62.5187 583.00
62.5839 613.00
62.6491 574.00
62.7143 569.00
62.7795 615.00
62.8447 520.00
62.9099 513.00
62.9751 549.00
63.0403 606.00
63.1055 575.00
63.1707 602.00
63.2359 592.00
63.3011 628.00
63.3663 606.00
63.4315 647.00
63.4967 665.00
63.5619 710.00
63.6271 663.00
63.6923 674.00
63.7575 641.00
63.8227 563.00
63.8879 576.00
63.9531 575.00
64.0183 580.00
64.0835 570.00
64.1487 559.00
64.2139 528.00
64.2791 507.00
64.3443 529.00
64.4095 581.00
64.4747 613.00
64.5399 522.00
64.6051 543.00
64.6703 583.00
64.7355 539.00
64.8007 529.00
64.8659 566.00
64.9311 596.00
64.9963 515.00
65.0615 547.00
65.1267 534.00
65.1919 534.00
65.2571 514.00
65.3223 571.00
65.3875 516.00
65.4527 500.00
65.5179 610.00
65.5831 585.00
65.6483 522.00
65.7135 550.00
65.7787 535.00
65.8439 562.00
65.9091 583.00
65.9743 547.00
66.0395 618.00
66.1047 572.00
66.1699 575.00
66.2351 572.00
66.3003 596.00
66.3655 584.00
66.4307 628.00
66.4959 627.00
66.561 622.00
66.6263 618.00
66.6915 664.00
66.7566 675.00
66.8218 637.00
66.887 637.00
66.9522 638.00
67.0174 583.00
67.0826 617.00
67.1478 634.00
67.213 600.00
67.2782 630.00
67.3434 626.00
67.4086 650.00
67.4738 677.00
67.539 681.00
67.6042 693.00
67.6694 733.00
67.7346 813.00
67.7998 869.00
67.865 896.00
67.9302 942.00
67.9954 1061.00
68.0606 973.00
68.1258 991.00
68.191 1032.00
68.2562 947.00
68.3214 879.00
68.3866 885.00
68.4518 835.00
68.517 734.00
68.5822 714.00
68.6474 633.00
68.7126 672.00
68.7778 655.00
68.843 620.00
68.9082 619.00
68.9734 664.00
69.0386 623.00
69.1038 575.00
69.169 541.00
69.2342 574.00
69.2994 616.00
69.3646 566.00
69.4298 543.00
69.495 592.00
69.5602 559.00
69.6254 544.00
69.6906 564.00
69.7558 554.00
69.821 559.00
69.8862 598.00
69.9514 580.00
70.0166 551.00
70.0818 591.00
70.147 609.00
70.2122 650.00
70.2774 622.00
70.3426 637.00
70.4078 592.00
70.473 622.00
70.5382 563.00
70.6034 591.00
70.6686 570.00
70.7338 537.00
70.799 546.00
70.8642 531.00
70.9294 556.00
70.9946 551.00
71.0598 546.00
71.125 528.00
71.1902 590.00
71.2554 623.00
71.3205 600.00
71.3858 611.00
71.451 590.00
71.5162 699.00
71.5813 666.00
71.6465 692.00
71.7117 602.00
71.7769 622.00
71.8421 597.00
71.9073 564.00
71.9725 562.00
72.0377 503.00
72.1029 477.00
72.1681 562.00
72.2333 605.00
72.2985 572.00
72.3637 559.00
72.4289 560.00
72.4941 567.00
72.5593 513.00
72.6245 517.00
72.6897 488.00
72.7549 549.00
72.8201 570.00
72.8853 551.00
72.9505 626.00
73.0157 667.00
73.0809 710.00
73.1461 752.00
73.2113 848.00
73.2765 870.00
73.3417 868.00
73.4069 932.00
73.4721 932.00
73.5373 903.00
73.6025 1004.00
73.6677 1101.00
73.7329 1081.00
73.7981 1086.00
73.8633 1091.00
73.9285 1150.00
73.9937 999.00
74.0589 1042.00
74.1241 1015.00
74.1893 1049.00
74.2545 947.00
74.3197 933.00
74.3849 867.00
74.4501 774.00
74.5153 716.00
74.5805 638.00
74.6457 648.00
74.7109 596.00
74.7761 551.00
74.8413 591.00
74.9065 582.00
74.9717 542.00
75.0369 575.00
75.1021 544.00
75.1673 600.00
75.2325 568.00
75.2977 549.00
75.3629 522.00
75.4281 591.00
75.4933 575.00
75.5585 545.00
75.6237 556.00
75.6889 594.00
75.7541 596.00
75.8193 561.00
75.8845 521.00
75.9497 563.00
76.0149 542.00
76.0801 530.00
76.1452 503.00
76.2104 472.00
76.2756 498.00
76.3409 468.00
76.406 435.00
76.4712 482.00
76.5364 440.00
76.6016 414.00
76.6668 394.00
76.732 492.00
76.7972 474.00
76.8624 494.00
76.9276 457.00
76.9928 484.00
77.058 466.00
77.1232 486.00
77.1884 447.00
77.2536 501.00
77.3188 471.00
77.384 520.00
77.4492 486.00
77.5144 508.00
77.5796 475.00
77.6448 462.00
77.71 430.00
77.7752 457.00
77.8404 451.00
77.9056 450.00
77.9708 399.00
78.036 450.00
78.1012 442.00
78.1664 460.00
78.2316 451.00
78.2968 426.00
78.362 409.00
78.4272 444.00
78.4924 425.00
78.5576 402.00
78.6228 422.00
78.688 445.00
78.7532 390.00
78.8184 414.00
78.8836 463.00
78.9488 420.00
79.014 425.00
79.0792 442.00
79.1444 427.00
79.2096 441.00
79.2748 438.00
79.34 439.00
79.4052 415.00
79.4704 440.00
79.5356 419.00
79.6008 370.00
79.666 425.00
79.7312 444.00
79.7964 483.00
79.8616 422.00
79.9268 433.00
79.992 452.00
80.0572 448.00
80.1224 436.00
80.1876 461.00
80.2528 436.00
80.318 455.00
80.3832 421.00
80.4484 447.00
80.5136 473.00
80.5788 513.00
80.644 558.00
80.7092 601.00
80.7744 625.00
80.8396 621.00
80.9048 587.00
80.9699 630.00
81.0351 640.00
81.1003 677.00
81.1655 646.00
81.2307 645.00
81.2959 621.00
81.3611 537.00
81.4263 525.00
81.4915 493.00
81.5567 454.00
81.6219 474.00
81.6871 473.00
81.7523 482.00
81.8175 447.00
81.8827 411.00
81.9479 441.00
82.0131 437.00
82.0783 419.00
82.1435 485.00
82.2087 499.00
82.2739 477.00
82.3391 494.00
82.4043 537.00
82.4695 555.00
82.5347 630.00
82.5999 667.00
82.6651 663.00
82.7303 709.00
82.7955 674.00
82.8607 618.00
82.9259 606.00
82.9911 587.00
83.0563 564.00
83.1215 510.00
83.1867 525.00
83.2519 516.00
83.3171 556.00
83.3823 543.00
83.4475 558.00
83.5127 508.00
83.5779 536.00
83.6431 430.00
83.7083 499.00
83.7735 464.00
83.8387 421.00
83.9039 479.00
83.9691 489.00
84.0343 505.00
84.0995 467.00
84.1647 462.00
84.2299 463.00
84.2951 499.00
84.3603 471.00
84.4255 517.00
84.4907 428.00
84.5559 444.00
84.6211 428.00
84.6863 402.00
84.7515 426.00
84.8167 429.00
84.8819 390.00
84.9471 392.00
85.0123 417.00
85.0775 415.00
85.1427 441.00
85.2079 406.00
85.2731 410.00
85.3383 400.00
85.4035 442.00
85.4687 407.00
85.5339 416.00
85.5991 428.00
85.6643 437.00
85.7295 392.00
85.7946 437.00
85.8598 489.00
85.925 464.00
85.9903 448.00
86.0554 436.00
86.1206 433.00
86.1858 440.00
86.251 427.00
86.3162 417.00
86.3814 385.00
86.4466 415.00
86.5118 362.00
86.577 385.00
86.6422 421.00
86.7074 402.00
86.7726 403.00
86.8378 388.00
86.903 396.00
86.9682 378.00
87.0334 332.00
87.0986 397.00
87.1638 372.00
87.229 398.00
87.2942 419.00
87.3594 363.00
87.4246 379.00
87.4898 419.00
87.555 319.00
87.6202 353.00
87.6854 363.00
87.7506 371.00
87.8158 391.00
87.881 364.00
87.9462 374.00
88.0114 383.00
88.0766 352.00
88.1418 370.00
88.207 398.00
88.2722 414.00
88.3374 428.00
88.4026 397.00
88.4678 446.00
88.533 447.00
88.5982 432.00
88.6634 474.00
88.7286 483.00
88.7938 532.00
88.859 561.00
88.9242 540.00
88.9894 554.00
89.0546 487.00
89.1198 487.00
89.185 421.00
89.2502 454.00
89.3154 406.00
89.3806 431.00
89.4458 401.00
89.511 365.00
89.5762 378.00
89.6414 412.00
89.7066 385.00
89.7718 386.00
89.837 390.00
89.9022 357.00
89.9674 354.00
90.0326 369.00
90.0978 383.00
90.163 459.00
90.2282 395.00
90.2934 368.00
90.3586 445.00
90.4238 431.00
90.489 453.00
90.5542 403.00
90.6193 430.00
90.6845 407.00
90.7497 423.00
90.8149 450.00
90.8801 437.00
90.9453 477.00
91.0105 419.00
91.0757 461.00
91.1409 400.00
91.2061 427.00
91.2713 442.00
91.3365 431.00
91.4017 383.00
91.4669 404.00
91.5321 399.00
91.5973 368.00
91.6625 427.00
91.7277 384.00
91.7929 388.00
91.8581 394.00
91.9233 377.00
91.9885 410.00
92.0537 411.00
92.1189 398.00
92.1841 419.00
92.2493 406.00
92.3145 431.00
92.3797 406.00
92.4449 430.00
92.5101 447.00
92.5753 416.00
92.6405 392.00
92.7057 386.00
92.7709 383.00
92.8361 373.00
92.9013 337.00
92.9665 344.00
93.0317 367.00
93.0969 352.00
93.1621 338.00
93.2273 394.00
93.2925 361.00
93.3577 341.00
93.4229 381.00
93.4881 361.00
93.5533 383.00
93.6185 327.00
93.6837 363.00
93.7489 350.00
93.8141 346.00
93.8793 388.00
93.9445 316.00
94.0097 325.00
94.0749 347.00
94.1401 345.00
94.2053 346.00
94.2705 317.00
94.3357 305.00
94.4009 335.00
94.4661 331.00
94.5313 347.00
94.5965 353.00
94.6617 378.00
94.7269 322.00
94.7921 331.00
94.8573 342.00
94.9225 320.00
94.9877 368.00
95.0529 357.00
95.1181 346.00
95.1833 347.00
95.2485 361.00
95.3137 343.00
95.3789 344.00
95.444 348.00
95.5092 356.00
95.5744 326.00
95.6396 363.00
95.7048 356.00
95.77 373.00
95.8352 362.00
95.9004 395.00
95.9656 371.00
96.0308 386.00
96.096 412.00
96.1612 435.00
96.2264 390.00
96.2916 441.00
96.3568 436.00
96.422 360.00
96.4872 427.00
96.5524 404.00
96.6176 360.00
96.6828 406.00
96.748 434.00
96.8132 422.00
96.8784 406.00
96.9436 422.00
97.0088 380.00
97.074 411.00
97.1392 431.00
97.2044 453.00
97.2696 451.00
97.3348 452.00
97.4 472.00
97.4652 502.00
97.5304 535.00
97.5956 493.00
97.6608 486.00
97.726 512.00
97.7912 490.00
97.8564 537.00
97.9216 515.00
97.9868 504.00
98.052 493.00
98.1172 542.00
98.1824 495.00
98.2476 493.00
98.3128 457.00
98.378 465.00
98.4432 442.00
98.5084 457.00
98.5736 428.00
98.6388 433.00
98.704 381.00
98.7692 428.00
98.8344 376.00
98.8996 388.00
98.9648 350.00
99.03 366.00
99.0952 373.00
99.1604 353.00
99.2256 358.00
99.2908 411.00
99.356 405.00
99.4212 363.00
99.4864 392.00
99.5516 389.00
99.6168 409.00
99.682 374.00
99.7472 367.00
99.8124 402.00
99.8776 360.00
99.9428 375.00
100.008 374.00
100.073 354.00
100.095 360.00