File: data/xrd_creation/results/PG_2635-1.xy
9.903433 4067.00
9.968632 4014.00
10.0338 4038.00
10.099 3940.00
10.1642 3995.00
10.2294 3962.00
10.2946 4009.00
10.3598 3897.00
10.425 3944.00
10.4902 4098.00
10.5554 3927.00
10.6206 3785.00
10.6858 3941.00
10.751 3869.00
10.8162 3994.00
10.8814 3790.00
10.9466 3844.00
11.0118 3778.00
11.077 3900.00
11.1422 3804.00
11.2074 3784.00
11.2726 3895.00
11.3378 3833.00
11.403 3833.00
11.4682 3968.00
11.5334 3844.00
11.5986 3891.00
11.6638 3996.00
11.729 3948.00
11.7942 3960.00
11.8594 3999.00
11.9246 3960.00
11.9898 3922.00
12.055 4031.00
12.1202 4095.00
12.1854 4099.00
12.2506 4389.00
12.3158 4621.00
12.381 4895.00
12.4462 5382.00
12.5114 5988.00
12.5766 6929.00
12.6418 8288.00
12.707 9707.00
12.7722 9963.00
12.8374 9202.00
12.9026 7587.00
12.9678 6115.00
13.033 5334.00
13.0982 4698.00
13.1634 4386.00
13.2286 4373.00
13.2938 4158.00
13.359 4056.00
13.4242 3994.00
13.4894 4056.00
13.5546 3915.00
13.6198 3951.00
13.685 3934.00
13.7502 3939.00
13.8154 3907.00
13.8805 4038.00
13.9457 3903.00
14.0109 3817.00
14.0761 3847.00
14.1413 3925.00
14.2065 3742.00
14.2717 3940.00
14.3369 3834.00
14.4021 3703.00
14.4673 3797.00
14.5325 3868.00
14.5977 3717.00
14.6629 3848.00
14.7281 3836.00
14.7933 3747.00
14.8585 3836.00
14.9237 3824.00
14.9889 3759.00
15.0541 3899.00
15.1193 3881.00
15.1845 3824.00
15.2497 3910.00
15.3149 3938.00
15.3801 3975.00
15.4453 3979.00
15.5105 3946.00
15.5757 4006.00
15.6409 4092.00
15.7061 4111.00
15.7713 4165.00
15.8365 4227.00
15.9017 4293.00
15.9669 4541.00
16.0321 4729.00
16.0973 4867.00
16.1625 5241.00
16.2277 5071.00
16.2929 4941.00
16.3581 4534.00
16.4233 4405.00
16.4885 4070.00
16.5537 4061.00
16.6189 3825.00
16.6841 3922.00
16.7493 3899.00
16.8145 3907.00
16.8797 3993.00
16.9449 3739.00
17.0101 3764.00
17.0753 3852.00
17.1405 3861.00
17.2057 3985.00
17.2709 3884.00
17.3361 3639.00
17.4013 3624.00
17.4665 3780.00
17.5317 3713.00
17.5969 3713.00
17.6621 3603.00
17.7273 3663.00
17.7925 3705.00
17.8577 3685.00
17.9229 3715.00
17.9881 3753.00
18.0533 3673.00
18.1185 3531.00
18.1837 3654.00
18.2489 3710.00
18.3141 3722.00
18.3793 3701.00
18.4445 3573.00
18.5097 3634.00
18.5749 3640.00
18.6401 3585.00
18.7052 3673.00
18.7704 3746.00
18.8356 3661.00
18.9008 3618.00
18.966 3607.00
19.0312 3639.00
19.0964 3776.00
19.1616 3628.00
19.2268 3589.00
19.292 3521.00
19.3572 3568.00
19.4224 3615.00
19.4876 3550.00
19.5528 3636.00
19.618 3574.00
19.6832 3648.00
19.7484 3501.00
19.8136 3615.00
19.8788 3609.00
19.944 3634.00
20.0092 3515.00
20.0744 3576.00
20.1396 3571.00
20.2048 3510.00
20.27 3519.00
20.3352 3546.00
20.4004 3567.00
20.4656 3520.00
20.5308 3515.00
20.596 3604.00
20.6612 3512.00
20.7264 3515.00
20.7916 3443.00
20.8568 3572.00
20.922 3452.00
20.9872 3506.00
21.0524 3616.00
21.1176 3443.00
21.1828 3458.00
21.248 3555.00
21.3132 3543.00
21.3784 3541.00
21.4436 3472.00
21.5088 3443.00
21.574 3477.00
21.6392 3598.00
21.7044 3567.00
21.7696 3590.00
21.8348 3635.00
21.9 3598.00
21.9652 3382.00
22.0304 3455.00
22.0956 3503.00
22.1608 3548.00
22.226 3512.00
22.2912 3542.00
22.3564 3580.00
22.4216 3405.00
22.4868 3521.00
22.552 3429.00
22.6172 3409.00
22.6824 3462.00
22.7476 3509.00
22.8128 3514.00
22.878 3492.00
22.9432 3402.00
23.0084 3475.00
23.0736 3579.00
23.1388 3443.00
23.204 3466.00
23.2692 3487.00
23.3344 3460.00
23.3996 3362.00
23.4647 3451.00
23.5299 3474.00
23.5951 3379.00
23.6603 3490.00
23.7255 3470.00
23.7907 3486.00
23.8559 3467.00
23.9211 3488.00
23.9863 3475.00
24.0515 3471.00
24.1167 3526.00
24.1819 3450.00
24.2471 3596.00
24.3123 3357.00
24.3775 3436.00
24.4427 3470.00
24.5079 3437.00
24.5731 3465.00
24.6383 3628.00
24.7035 3627.00
24.7687 3509.00
24.8339 3568.00
24.8991 3574.00
24.9643 3744.00
25.0295 3900.00
25.0947 4045.00
25.1599 4301.00
25.2251 4928.00
25.2903 5129.00
25.3555 5213.00
25.4207 5194.00
25.4859 5067.00
25.5511 4858.00
25.6163 4518.00
25.6815 4163.00
25.7467 4011.00
25.8119 3760.00
25.8771 3800.00
25.9423 3545.00
26.0075 3565.00
26.0727 3603.00
26.1379 3426.00
26.2031 3548.00
26.2683 3430.00
26.3335 3573.00
26.3987 3419.00
26.4639 3464.00
26.5291 3305.00
26.5943 3417.00
26.6595 3347.00
26.7247 3365.00
26.7899 3417.00
26.8551 3289.00
26.9203 3422.00
26.9855 3406.00
27.0507 3303.00
27.1159 3402.00
27.1811 3230.00
27.2463 3369.00
27.3115 3298.00
27.3767 3314.00
27.4419 3414.00
27.5071 3350.00
27.5723 3387.00
27.6375 3342.00
27.7027 3319.00
27.7679 3407.00
27.8331 3505.00
27.8983 3306.00
27.9635 3375.00
28.0287 3437.00
28.0939 3356.00
28.1591 3253.00
28.2243 3382.00
28.2894 3449.00
28.3546 3434.00
28.4198 3277.00
28.485 3289.00
28.5502 3316.00
28.6154 3230.00
28.6806 3310.00
28.7458 3338.00
28.811 3239.00
28.8762 3336.00
28.9414 3308.00
29.0066 3312.00
29.0718 3281.00
29.137 3355.00
29.2022 3286.00
29.2674 3270.00
29.3326 3270.00
29.3978 3353.00
29.463 3345.00
29.5282 3297.00
29.5934 3349.00
29.6586 3215.00
29.7238 3234.00
29.789 3270.00
29.8542 3299.00
29.9194 3183.00
29.9846 3256.00
30.0498 3203.00
30.115 3192.00
30.1802 3358.00
30.2454 3286.00
30.3106 3325.00
30.3758 3434.00
30.441 3628.00
30.5062 3516.00
30.5714 3360.00
30.6366 3251.00
30.7018 3189.00
30.767 3279.00
30.8322 3294.00
30.8974 3269.00
30.9626 3297.00
31.0278 3275.00
31.093 3191.00
31.1582 3259.00
31.2234 3238.00
31.2886 3278.00
31.3538 3182.00
31.419 3350.00
31.4842 3346.00
31.5494 3236.00
31.6146 3287.00
31.6798 3355.00
31.745 3400.00
31.8102 3283.00
31.8754 3367.00
31.9406 3457.00
32.0058 3356.00
32.071 3297.00
32.1362 3335.00
32.2014 3366.00
32.2666 3512.00
32.3318 3334.00
32.397 3507.00
32.4622 3707.00
32.5274 4059.00
32.5926 4351.00
32.6578 4084.00
32.723 3914.00
32.7882 3843.00
32.8534 3592.00
32.9186 3519.00
32.9838 3304.00
33.0489 3326.00
33.1141 3290.00
33.1793 3273.00
33.2445 3197.00
33.3097 3281.00
33.3749 3338.00
33.4401 3344.00
33.5053 3365.00
33.5705 3527.00
33.6357 3481.00
33.7009 3564.00
33.7661 3429.00
33.8313 3635.00
33.8965 3573.00
33.9617 3501.00
34.0269 3258.00
34.0921 3268.00
34.1573 3257.00
34.2225 3239.00
34.2877 3264.00
34.3529 3298.00
34.4181 3450.00
34.4833 3466.00
34.5485 3367.00
34.6137 3381.00
34.6789 3308.00
34.7441 3404.00
34.8093 3445.00
34.8745 3354.00
34.9397 3266.00
35.0049 3332.00
35.0701 3382.00
35.1353 3377.00
35.2005 3668.00
35.2657 3851.00
35.3309 3500.00
35.3961 3432.00
35.4613 3528.00
35.5265 3790.00
35.5917 3646.00
35.6569 3656.00
35.7221 3519.00
35.7873 3708.00
35.8525 3782.00
35.9177 3751.00
35.9829 3622.00
36.0481 3724.00
36.1133 3597.00
36.1785 3650.00
36.2437 3615.00
36.3089 3670.00
36.3741 3665.00
36.4393 3763.00
36.5045 3777.00
36.5697 3855.00
36.6349 3778.00
36.7001 3760.00
36.7653 3704.00
36.8305 3791.00
36.8957 3848.00
36.9609 4008.00
37.0261 3903.00
37.0913 4095.00
37.1565 4153.00
37.2217 4307.00
37.2869 4471.00
37.3521 4333.00
37.4173 4146.00
37.4825 3991.00
37.5477 3947.00
37.6129 3736.00
37.6781 3657.00
37.7433 3660.00
37.8085 3584.00
37.8736 3564.00
37.9388 3532.00
38.004 3434.00
38.0692 3731.00
38.1344 4005.00
38.1996 4236.00
38.2648 4312.00
38.33 4035.00
38.3952 3759.00
38.4604 3600.00
38.5256 3348.00
38.5908 3309.00
38.656 3286.00
38.7212 3338.00
38.7864 3286.00
38.8516 3374.00
38.9168 3296.00
38.982 3391.00
39.0472 3311.00
39.1124 3262.00
39.1776 3375.00
39.2428 3251.00
39.308 3309.00
39.3732 3251.00
39.4384 3315.00
39.5036 3334.00
39.5688 3269.00
39.634 3346.00
39.6992 3308.00
39.7644 3204.00
39.8296 3329.00
39.8948 3325.00
39.96 3326.00
40.0252 3343.00
40.0904 3277.00
40.1556 3474.00
40.2208 3512.00
40.286 3593.00
40.3512 3482.00
40.4164 3461.00
40.4816 3425.00
40.5468 3536.00
40.612 3515.00
40.6772 3505.00
40.7424 3748.00
40.8076 4059.00
40.8728 4136.00
40.938 3849.00
41.0032 3687.00
41.0684 3423.00
41.1336 3410.00
41.1988 3303.00
41.264 3377.00
41.3292 3369.00
41.3944 3558.00
41.4596 3503.00
41.5248 3453.00
41.59 3414.00
41.6552 3551.00
41.7204 3647.00
41.7856 3727.00
41.8508 3675.00
41.916 3579.00
41.9812 3534.00
42.0464 3630.00
42.1116 3597.00
42.1768 3591.00
42.242 3621.00
42.3072 3648.00
42.3724 3537.00
42.4376 3684.00
42.5028 3531.00
42.568 3566.00
42.6332 3567.00
42.6983 3528.00
42.7635 3364.00
42.8287 3397.00
42.8939 3410.00
42.9591 3233.00
43.0243 3268.00
43.0895 3162.00
43.1547 3332.00
43.2199 3234.00
43.2851 3323.00
43.3503 3298.00
43.4155 3222.00
43.4807 3169.00
43.5459 3210.00
43.6111 3222.00
43.6763 3220.00
43.7415 3297.00
43.8067 3179.00
43.8719 3239.00
43.9371 3259.00
44.0023 3256.00
44.0675 3304.00
44.1327 3337.00
44.1979 3314.00
44.2631 3288.00
44.3283 3225.00
44.3935 3322.00
44.4587 3121.00
44.5239 3251.00
44.5891 3300.00
44.6543 3282.00
44.7195 3274.00
44.7847 3165.00
44.8499 3306.00
44.9151 3312.00
44.9803 3154.00
45.0455 3353.00
45.1107 3194.00
45.1759 3194.00
45.2411 3317.00
45.3063 3302.00
45.3715 3322.00
45.4367 3308.00
45.5019 3402.00
45.5671 3480.00
45.6323 3284.00
45.6975 3215.00
45.7627 3204.00
45.8279 3144.00
45.8931 3326.00
45.9583 3246.00
46.0235 3134.00
46.0887 3159.00
46.1539 3094.00
46.2191 3118.00
46.2843 3181.00
46.3495 3188.00
46.4147 3134.00
46.4799 3184.00
46.5451 3154.00
46.6103 3277.00
46.6755 3245.00
46.7407 3347.00
46.8059 3380.00
46.8711 3302.00
46.9363 3240.00
47.0015 3131.00
47.0667 3053.00
47.1319 3063.00
47.1971 3160.00
47.2623 3177.00
47.3275 3200.00
47.3927 3149.00
47.4579 3211.00
47.523 3209.00
47.5882 3159.00
47.6534 3143.00
47.7186 3238.00
47.7838 3204.00
47.849 3116.00
47.9142 3020.00
47.9794 3196.00
48.0446 3162.00
48.1098 3280.00
48.175 3136.00
48.2402 3082.00
48.3054 3200.00
48.3706 3222.00
48.4358 3208.00
48.501 3258.00
48.5662 3345.00
48.6314 3342.00
48.6966 3140.00
48.7618 3260.00
48.827 3231.00
48.8922 3110.00
48.9574 3152.00
49.0226 3239.00
49.0878 3255.00
49.153 3231.00
49.2182 3236.00
49.2834 3221.00
49.3486 3181.00
49.4138 3152.00
49.479 3197.00
49.5442 3297.00
49.6094 3240.00
49.6746 3227.00
49.7398 3181.00
49.805 3289.00
49.8702 3231.00
49.9354 3236.00
50.0006 3371.00
50.0658 3252.00
50.131 3271.00
50.1962 3351.00
50.2614 3350.00
50.3266 3357.00
50.3918 3353.00
50.457 3379.00
50.5222 3322.00
50.5874 3417.00
50.6526 3314.00
50.7178 3292.00
50.783 3318.00
50.8482 3242.00
50.9134 3341.00
50.9786 3338.00
51.0438 3277.00
51.109 3166.00
51.1742 3283.00
51.2394 3192.00
51.3046 3146.00
51.3698 3253.00
51.435 3199.00
51.5002 3279.00
51.5654 3164.00
51.6306 3237.00
51.6958 3168.00
51.761 3050.00
51.8262 3066.00
51.8914 3269.00
51.9566 3123.00
52.0218 3196.00
52.087 3063.00
52.1522 3084.00
52.2174 3040.00
52.2826 2986.00
52.3477 3034.00
52.4129 3073.00
52.4781 3090.00
52.5433 3060.00
52.6085 3103.00
52.6737 2982.00
52.7389 3059.00
52.8041 3101.00
52.8693 3076.00
52.9345 3063.00
52.9997 3022.00
53.0649 3076.00
53.1301 2964.00
53.1953 2995.00
53.2605 3156.00
53.3257 2999.00
53.3909 3055.00
53.4561 3101.00
53.5213 3088.00
53.5865 3096.00
53.6517 3113.00
53.7169 3092.00
53.7821 3023.00
53.8473 3100.00
53.9125 3101.00
53.9777 3059.00
54.0429 3108.00
54.1081 3024.00
54.1733 3038.00
54.2385 3130.00
54.3037 3048.00
54.3689 3083.00
54.4341 3133.00
54.4993 3068.00
54.5645 3064.00
54.6297 3073.00
54.6949 3083.00
54.7601 3106.00
54.8253 3222.00
54.8905 3152.00
54.9557 3101.00
55.0209 3088.00
55.0861 3150.00
55.1513 3024.00
55.2165 3069.00
55.2817 3094.00
55.3469 3158.00
55.4121 3140.00
55.4773 3222.00
55.5425 3164.00
55.6077 3112.00
55.6729 2991.00
55.7381 3077.00
55.8033 3063.00
55.8685 3140.00
55.9337 3054.00
55.9989 3175.00
56.0641 3196.00
56.1293 3194.00
56.1945 3166.00
56.2597 3094.00
56.3249 3195.00
56.3901 3092.00
56.4553 3181.00
56.5205 3160.00
56.5857 3261.00
56.6509 3181.00
56.7161 3180.00
56.7813 3235.00
56.8465 3178.00
56.9117 3204.00
56.9769 3197.00
57.042 3162.00
57.1073 3276.00
57.1724 3304.00
57.2376 3257.00
57.3028 3322.00
57.368 3316.00
57.4332 3301.00
57.4984 3314.00
57.5636 3308.00
57.6288 3160.00
57.694 3035.00
57.7592 3112.00
57.8244 3124.00
57.8896 3064.00
57.9548 3071.00
58.02 3025.00
58.0852 2983.00
58.1504 3012.00
58.2156 3029.00
58.2808 3014.00
58.346 2948.00
58.4112 3130.00
58.4764 3067.00
58.5416 3037.00
58.6068 3056.00
58.672 3022.00
58.7372 3134.00
58.8024 3131.00
58.8676 3211.00
58.9328 3422.00
58.998 3334.00
59.0632 3219.00
59.1284 3171.00
59.1936 3110.00
59.2588 3072.00
59.324 3035.00
59.3892 3085.00
59.4544 3129.00
59.5196 3079.00
59.5848 3122.00
59.65 3059.00
59.7152 3038.00
59.7804 3146.00
59.8456 3021.00
59.9108 3030.00
59.976 2998.00
60.0412 3113.00
60.1064 3016.00
60.1716 3084.00
60.2368 3099.00
60.302 3031.00
60.3672 3032.00
60.4324 3034.00
60.4976 3039.00
60.5628 3179.00
60.628 3116.00
60.6932 3043.00
60.7584 3086.00
60.8236 3086.00
60.8888 3094.00
60.954 3133.00
61.0192 3077.00
61.0844 3026.00
61.1496 3089.00
61.2148 3093.00
61.28 3106.00
61.3452 3068.00
61.4104 3106.00
61.4756 3082.00
61.5408 2969.00
61.606 2935.00
61.6712 3022.00
61.7364 3011.00
61.8016 2985.00
61.8667 2939.00
61.932 2977.00
61.9971 2920.00
62.0623 3052.00
62.1275 2925.00
62.1927 3007.00
62.2579 3009.00
62.3231 2993.00
62.3883 3046.00
62.4535 2833.00
62.5187 2992.00
62.5839 3015.00
62.6491 2851.00
62.7143 3032.00
62.7795 3113.00
62.8447 3043.00
62.9099 3034.00
62.9751 3155.00
63.0403 3176.00
63.1055 3154.00
63.1707 3272.00
63.2359 3258.00
63.3011 3181.00
63.3663 3147.00
63.4315 3100.00
63.4967 3098.00
63.5619 2962.00
63.6271 3034.00
63.6923 3102.00
63.7575 3103.00
63.8227 3092.00
63.8879 3009.00
63.9531 3092.00
64.0183 3034.00
64.0835 3101.00
64.1487 2979.00
64.2139 3013.00
64.2791 3097.00
64.3443 3273.00
64.4095 3077.00
64.4747 3162.00
64.5399 3173.00
64.6051 3261.00
64.6703 3183.00
64.7355 3200.00
64.8007 3248.00
64.8659 3169.00
64.9311 3161.00
64.9963 3084.00
65.0615 3219.00
65.1267 3217.00
65.1919 3180.00
65.2571 3246.00
65.3223 3264.00
65.3875 3246.00
65.4527 3235.00
65.5179 3298.00
65.5831 3226.00
65.6483 3223.00
65.7135 3148.00
65.7787 3451.00
65.8439 3269.00
65.9091 3345.00
65.9743 3191.00
66.0395 3161.00
66.1047 3196.00
66.1699 3123.00
66.2351 3081.00
66.3003 3248.00
66.3655 3186.00
66.4307 2977.00
66.4959 3062.00
66.561 3167.00
66.6263 3050.00
66.6915 3077.00
66.7566 3060.00
66.8218 3079.00
66.887 3145.00
66.9522 3157.00
67.0174 3194.00
67.0826 3146.00
67.1478 3229.00
67.213 3153.00
67.2782 3057.00
67.3434 3200.00
67.4086 3106.00
67.4738 3086.00
67.539 3179.00
67.6042 3124.00
67.6694 3143.00
67.7346 3133.00
67.7998 3145.00
67.865 3063.00
67.9302 3052.00
67.9954 3046.00
68.0606 3076.00
68.1258 3081.00
68.191 2980.00
68.2562 3129.00
68.3214 2901.00
68.3866 2946.00
68.4518 3038.00
68.517 3056.00
68.5822 3019.00
68.6474 3063.00
68.7126 2910.00
68.7778 3102.00
68.843 3031.00
68.9082 3115.00
68.9734 3091.00
69.0386 2995.00
69.1038 2914.00
69.169 3065.00
69.2342 3081.00
69.2994 3008.00
69.3646 3005.00
69.4298 3004.00
69.495 3014.00
69.5602 3015.00
69.6254 2982.00
69.6906 3036.00
69.7558 3031.00
69.821 3030.00
69.8862 3058.00
69.9514 2982.00
70.0166 2962.00
70.0818 3074.00
70.147 3035.00
70.2122 3038.00
70.2774 2971.00
70.3426 3005.00
70.4078 3004.00
70.473 2995.00
70.5382 2925.00
70.6034 2986.00
70.6686 3066.00
70.7338 2983.00
70.799 3022.00
70.8642 2955.00
70.9294 2955.00
70.9946 2971.00
71.0598 2974.00
71.125 3021.00
71.1902 2985.00
71.2554 2876.00
71.3205 3001.00
71.3858 3004.00
71.451 2936.00
71.5162 3014.00
71.5813 2967.00
71.6465 3038.00
71.7117 2866.00
71.7769 2949.00
71.8421 3036.00
71.9073 2960.00
71.9725 2964.00
72.0377 3051.00
72.1029 3018.00
72.1681 3099.00
72.2333 2935.00
72.2985 3015.00
72.3637 2961.00
72.4289 3066.00
72.4941 2992.00
72.5593 2962.00
72.6245 3015.00
72.6897 2988.00
72.7549 2942.00
72.8201 2929.00
72.8853 2932.00
72.9505 2857.00
73.0157 3056.00
73.0809 2921.00
73.1461 3026.00
73.2113 3025.00
73.2765 2985.00
73.3417 2940.00
73.4069 2972.00
73.4721 2940.00
73.5373 2914.00
73.6025 2944.00
73.6677 3028.00
73.7329 2887.00
73.7981 2988.00
73.8633 3042.00
73.9285 2997.00
73.9937 3090.00
74.0589 2988.00
74.1241 2970.00
74.1893 2926.00
74.2545 3057.00
74.3197 3030.00
74.3849 2909.00
74.4501 2991.00
74.5153 2907.00
74.5805 2901.00
74.6457 3047.00
74.7109 2910.00
74.7761 2983.00
74.8413 2891.00
74.9065 2887.00
74.9717 2994.00
75.0369 2958.00
75.1021 2974.00
75.1673 2944.00
75.2325 2829.00
75.2977 2914.00
75.3629 2963.00
75.4281 2908.00
75.4933 3005.00
75.5585 2864.00
75.6237 2819.00
75.6889 2895.00
75.7541 3020.00
75.8193 2933.00
75.8845 2980.00
75.9497 2947.00
76.0149 2958.00
76.0801 2893.00
76.1452 2978.00
76.2104 2976.00
76.2756 2944.00
76.3409 2975.00
76.406 2906.00
76.4712 2931.00
76.5364 3006.00
76.6016 3010.00
76.6668 2926.00
76.732 3074.00
76.7972 3131.00
76.8624 2951.00
76.9276 3064.00
76.9928 3010.00
77.058 2939.00
77.1232 3053.00
77.1884 3030.00
77.2536 2976.00
77.3188 2939.00
77.384 3084.00
77.4492 2923.00
77.5144 3027.00
77.5796 2971.00
77.6448 2978.00
77.71 2996.00
77.7752 2943.00
77.8404 2976.00
77.9056 2973.00
77.9708 2965.00
78.036 2997.00
78.1012 2961.00
78.1664 2958.00
78.2316 3020.00
78.2968 2877.00
78.362 2969.00
78.4272 2955.00
78.4924 3011.00
78.5576 2986.00
78.6228 2976.00
78.688 2964.00
78.7532 3016.00
78.8184 2897.00
78.8836 2860.00
78.9488 2903.00
79.014 2937.00
79.0792 3055.00
79.1444 3041.00
79.2096 2963.00
79.2748 2941.00
79.34 3002.00
79.4052 2953.00
79.4704 2948.00
79.5356 3076.00
79.6008 3020.00
79.666 2884.00
79.7312 3065.00
79.7964 2931.00
79.8616 2962.00
79.9268 2927.00
79.992 2960.00
80.0572 3010.00
80.1224 2950.00
80.1876 3030.00
80.2528 2916.00
80.318 3021.00
80.3832 2942.00
80.4484 2968.00
80.5136 2984.00
80.5788 2834.00
80.644 3026.00
80.7092 2944.00
80.7744 3018.00
80.8396 2895.00
80.9048 2929.00
80.9699 2966.00
81.0351 2971.00
81.1003 2922.00
81.1655 2997.00
81.2307 3014.00
81.2959 2963.00
81.3611 2929.00
81.4263 3008.00
81.4915 2940.00
81.5567 2958.00
81.6219 2959.00
81.6871 2895.00
81.7523 3051.00
81.8175 2983.00
81.8827 2946.00
81.9479 2958.00
82.0131 2948.00
82.0783 2937.00
82.1435 2935.00
82.2087 2936.00
82.2739 2893.00
82.3391 2952.00
82.4043 2969.00
82.4695 2996.00
82.5347 2988.00
82.5999 3005.00
82.6651 2908.00
82.7303 2981.00
82.7955 2852.00
82.8607 3039.00
82.9259 2984.00
82.9911 2999.00
83.0563 3014.00
83.1215 2987.00
83.1867 2977.00
83.2519 2860.00
83.3171 2917.00
83.3823 3026.00
83.4475 2995.00
83.5127 3013.00
83.5779 2897.00
83.6431 2917.00
83.7083 2955.00
83.7735 2848.00
83.8387 2944.00
83.9039 2959.00
83.9691 3068.00
84.0343 2939.00
84.0995 2873.00
84.1647 2948.00
84.2299 2926.00
84.2951 3081.00
84.3603 2932.00
84.4255 2968.00
84.4907 3019.00
84.5559 2906.00
84.6211 2866.00
84.6863 2873.00
84.7515 2953.00
84.8167 2941.00
84.8819 2987.00
84.9471 2967.00
85.0123 2882.00
85.0775 2909.00
85.1427 2947.00
85.2079 2928.00
85.2731 3019.00
85.3383 2972.00
85.4035 2955.00
85.4687 2904.00
85.5339 2871.00
85.5991 2926.00
85.6643 2884.00
85.7295 3046.00
85.7946 2929.00
85.8598 3032.00
85.925 3013.00
85.9903 2970.00
86.0554 2971.00
86.1206 3007.00
86.1858 2795.00
86.251 2983.00
86.3162 2982.00
86.3814 2962.00
86.4466 2979.00
86.5118 2935.00
86.577 2898.00
86.6422 2909.00
86.7074 2966.00
86.7726 2910.00
86.8378 2943.00
86.903 2907.00
86.9682 2878.00
87.0334 2854.00
87.0986 2945.00
87.1638 2911.00
87.229 2842.00
87.2942 2869.00
87.3594 2868.00
87.4246 2886.00
87.4898 2895.00
87.555 2844.00
87.6202 3045.00
87.6854 2906.00
87.7506 2929.00
87.8158 2876.00
87.881 2913.00
87.9462 2936.00
88.0114 2834.00
88.0766 3031.00
88.1418 2875.00
88.207 2883.00
88.2722 2854.00
88.3374 2903.00
88.4026 2884.00
88.4678 2907.00
88.533 2856.00
88.5982 2926.00
88.6634 3024.00
88.7286 2939.00
88.7938 2939.00
88.859 3032.00
88.9242 2861.00
88.9894 2919.00
89.0546 2979.00
89.1198 2994.00
89.185 2886.00
89.2502 2910.00
89.3154 2919.00
89.3806 2886.00
89.4458 2910.00
89.511 2984.00
89.5762 2858.00
89.6414 2884.00
89.7066 2953.00
89.7718 2864.00
89.837 2954.00
89.9022 2865.00
89.9674 2911.00
90.0326 2889.00
90.0978 2857.00
90.163 2901.00
90.2282 2973.00
90.2934 2876.00
90.3586 2865.00
90.4238 2924.00
90.489 2947.00
90.5542 2943.00
90.6193 2991.00
90.6845 2903.00
90.7497 2913.00
90.8149 2908.00
90.8801 2932.00
90.9453 3020.00
91.0105 2847.00
91.0757 2832.00
91.1409 2932.00
91.2061 2867.00
91.2713 2893.00
91.3365 2817.00
91.4017 2788.00
91.4669 2904.00
91.5321 2979.00
91.5973 2798.00
91.6625 3015.00
91.7277 2926.00
91.7929 2845.00
91.8581 2882.00
91.9233 2748.00
91.9885 2852.00
92.0537 2850.00
92.1189 2934.00
92.1841 2907.00
92.2493 2942.00
92.3145 2807.00
92.3797 2929.00
92.4449 2871.00
92.5101 2927.00
92.5753 2953.00
92.6405 3006.00
92.7057 2935.00
92.7709 2926.00
92.8361 2964.00
92.9013 2856.00
92.9665 2927.00
93.0317 2883.00
93.0969 2856.00
93.1621 2915.00
93.2273 2938.00
93.2925 3022.00
93.3577 2877.00
93.4229 2890.00
93.4881 2940.00
93.5533 2902.00
93.6185 2828.00
93.6837 2862.00
93.7489 2934.00
93.8141 2941.00
93.8793 2883.00
93.9445 2951.00
94.0097 2861.00
94.0749 2927.00
94.1401 2884.00
94.2053 2890.00
94.2705 2869.00
94.3357 2876.00
94.4009 2917.00
94.4661 2879.00
94.5313 2852.00
94.5965 2907.00
94.6617 2840.00
94.7269 2895.00
94.7921 2926.00
94.8573 2819.00
94.9225 2774.00
94.9877 2864.00
95.0529 2840.00
95.1181 3036.00
95.1833 2800.00
95.2485 2879.00
95.3137 2903.00
95.3789 2861.00
95.444 2877.00
95.5092 2912.00
95.5744 2904.00
95.6396 2990.00
95.7048 2820.00
95.77 2795.00
95.8352 2997.00
95.9004 2897.00
95.9656 2830.00
96.0308 2888.00
96.096 2951.00
96.1612 2912.00
96.2264 2893.00
96.2916 2983.00
96.3568 2996.00
96.422 2947.00
96.4872 2792.00
96.5524 2838.00
96.6176 2912.00
96.6828 2845.00
96.748 2976.00
96.8132 2937.00
96.8784 2860.00
96.9436 2886.00
97.0088 2862.00
97.074 2811.00
97.1392 2988.00
97.2044 2923.00
97.2696 2793.00
97.3348 2928.00
97.4 2961.00
97.4652 2997.00
97.5304 2999.00
97.5956 3012.00
97.6608 2879.00
97.726 2882.00
97.7912 2918.00
97.8564 2814.00
97.9216 2901.00
97.9868 2862.00
98.052 2873.00
98.1172 2956.00
98.1824 2909.00
98.2476 2910.00
98.3128 2952.00
98.378 2992.00
98.4432 2960.00
98.5084 2900.00
98.5736 2941.00
98.6388 2976.00
98.704 2967.00
98.7692 2860.00
98.8344 2910.00
98.8996 2943.00
98.9648 2883.00
99.03 3046.00
99.0952 2980.00
99.1604 2914.00
99.2256 2958.00
99.2908 3036.00
99.356 2913.00
99.4212 2961.00
99.4864 3011.00
99.5516 3031.00
99.6168 2999.00
99.682 2886.00
99.7472 2887.00
99.8124 3048.00
99.8776 2879.00
99.9428 2903.00
100.008 2938.00
100.073 2836.00
100.095 2901.00