File: data/xrd_creation/results/PG_2149-1.xy
9.903433 2455.00
9.968632 2463.00
10.0338 2425.00
10.099 2427.00
10.1642 2419.00
10.2294 2438.00
10.2946 2312.00
10.3598 2349.00
10.425 2336.00
10.4902 2368.00
10.5554 2245.00
10.6206 2243.00
10.6858 2300.00
10.751 2261.00
10.8162 2265.00
10.8814 2167.00
10.9466 2214.00
11.0118 2170.00
11.077 2128.00
11.1422 2102.00
11.2074 2162.00
11.2726 2108.00
11.3378 2078.00
11.403 2109.00
11.4682 1968.00
11.5334 2065.00
11.5986 1985.00
11.6638 1940.00
11.729 1977.00
11.7942 1952.00
11.8594 1917.00
11.9246 1891.00
11.9898 1938.00
12.055 1884.00
12.1202 1905.00
12.1854 1880.00
12.2506 1839.00
12.3158 1879.00
12.381 1843.00
12.4462 1825.00
12.5114 1757.00
12.5766 1819.00
12.6418 1736.00
12.707 1793.00
12.7722 1799.00
12.8374 1720.00
12.9026 1751.00
12.9678 1713.00
13.033 1682.00
13.0982 1746.00
13.1634 1702.00
13.2286 1743.00
13.2938 1608.00
13.359 1724.00
13.4242 1679.00
13.4894 1591.00
13.5546 1659.00
13.6198 1515.00
13.685 1672.00
13.7502 1502.00
13.8154 1646.00
13.8805 1543.00
13.9457 1619.00
14.0109 1527.00
14.0761 1492.00
14.1413 1631.00
14.2065 1489.00
14.2717 1553.00
14.3369 1556.00
14.4021 1558.00
14.4673 1523.00
14.5325 1498.00
14.5977 1518.00
14.6629 1542.00
14.7281 1491.00
14.7933 1462.00
14.8585 1530.00
14.9237 1459.00
14.9889 1508.00
15.0541 1477.00
15.1193 1493.00
15.1845 1464.00
15.2497 1464.00
15.3149 1494.00
15.3801 1511.00
15.4453 1544.00
15.5105 1682.00
15.5757 1729.00
15.6409 1956.00
15.7061 2228.00
15.7713 2521.00
15.8365 3069.00
15.9017 4084.00
15.9669 5129.00
16.0321 6014.00
16.0973 5054.00
16.1625 3398.00
16.2277 2367.00
16.2929 1937.00
16.3581 1693.00
16.4233 1615.00
16.4885 1574.00
16.5537 1515.00
16.6189 1508.00
16.6841 1336.00
16.7493 1407.00
16.8145 1387.00
16.8797 1423.00
16.9449 1437.00
17.0101 1340.00
17.0753 1341.00
17.1405 1295.00
17.2057 1327.00
17.2709 1268.00
17.3361 1275.00
17.4013 1262.00
17.4665 1288.00
17.5317 1345.00
17.5969 1259.00
17.6621 1317.00
17.7273 1305.00
17.7925 1300.00
17.8577 1264.00
17.9229 1273.00
17.9881 1291.00
18.0533 1215.00
18.1185 1243.00
18.1837 1181.00
18.2489 1186.00
18.3141 1254.00
18.3793 1228.00
18.4445 1154.00
18.5097 1199.00
18.5749 1144.00
18.6401 1139.00
18.7052 1108.00
18.7704 1119.00
18.8356 1121.00
18.9008 1109.00
18.966 1158.00
19.0312 1205.00
19.0964 1187.00
19.1616 1171.00
19.2268 1180.00
19.292 1067.00
19.3572 1102.00
19.4224 1127.00
19.4876 1073.00
19.5528 1069.00
19.618 1076.00
19.6832 1041.00
19.7484 1062.00
19.8136 1113.00
19.8788 1095.00
19.944 1052.00
20.0092 1081.00
20.0744 1068.00
20.1396 1037.00
20.2048 1010.00
20.27 1030.00
20.3352 1101.00
20.4004 1060.00
20.4656 1060.00
20.5308 1038.00
20.596 1079.00
20.6612 972.00
20.7264 991.00
20.7916 994.00
20.8568 1012.00
20.922 1050.00
20.9872 1027.00
21.0524 968.00
21.1176 966.00
21.1828 1018.00
21.248 1010.00
21.3132 1060.00
21.3784 1005.00
21.4436 1020.00
21.5088 976.00
21.574 959.00
21.6392 1020.00
21.7044 978.00
21.7696 998.00
21.8348 1041.00
21.9 1049.00
21.9652 1014.00
22.0304 972.00
22.0956 988.00
22.1608 924.00
22.226 961.00
22.2912 964.00
22.3564 1017.00
22.4216 966.00
22.4868 992.00
22.552 946.00
22.6172 953.00
22.6824 1021.00
22.7476 1037.00
22.8128 1019.00
22.878 1067.00
22.9432 1083.00
23.0084 1108.00
23.0736 1176.00
23.1388 1242.00
23.204 1493.00
23.2692 2052.00
23.3344 3031.00
23.3996 4955.00
23.4647 7980.00
23.5299 8820.00
23.5951 5318.00
23.6603 2736.00
23.7255 2223.00
23.7907 2653.00
23.8559 3922.00
23.9211 6258.00
23.9863 8339.00
24.0515 7058.00
24.1167 3918.00
24.1819 2344.00
24.2471 1873.00
24.3123 1788.00
24.3775 1733.00
24.4427 1983.00
24.5079 2373.00
24.5731 3329.00
24.6383 5161.00
24.7035 8025.00
24.7687 8769.00
24.8339 4983.00
24.8991 2269.00
24.9643 1463.00
25.0295 1282.00
25.0947 1206.00
25.1599 1069.00
25.2251 979.00
25.2903 994.00
25.3555 901.00
25.4207 918.00
25.4859 913.00
25.5511 876.00
25.6163 926.00
25.6815 888.00
25.7467 877.00
25.8119 871.00
25.8771 920.00
25.9423 858.00
26.0075 862.00
26.0727 843.00
26.1379 878.00
26.2031 930.00
26.2683 954.00
26.3335 912.00
26.3987 870.00
26.4639 896.00
26.5291 892.00
26.5943 959.00
26.6595 949.00
26.7247 996.00
26.7899 1168.00
26.8551 1442.00
26.9203 1937.00
26.9855 2172.00
27.0507 1887.00
27.1159 1532.00
27.1811 1279.00
27.2463 1302.00
27.3115 1325.00
27.3767 1533.00
27.4419 1886.00
27.5071 2644.00
27.5723 3740.00
27.6375 4488.00
27.7027 4432.00
27.7679 3504.00
27.8331 2470.00
27.8983 1811.00
27.9635 1696.00
28.0287 1608.00
28.0939 1939.00
28.1591 2541.00
28.2243 3671.00
28.2894 5125.00
28.3546 6304.00
28.4198 5814.00
28.485 3938.00
28.5502 2541.00
28.6154 1769.00
28.6806 1499.00
28.7458 1449.00
28.811 1402.00
28.8762 1417.00
28.9414 1623.00
29.0066 1980.00
29.0718 1876.00
29.137 1835.00
29.2022 1969.00
29.2674 2025.00
29.3326 2031.00
29.3978 1609.00
29.463 1221.00
29.5282 1009.00
29.5934 896.00
29.6586 843.00
29.7238 732.00
29.789 709.00
29.8542 768.00
29.9194 746.00
29.9846 724.00
30.0498 753.00
30.115 718.00
30.1802 718.00
30.2454 699.00
30.3106 777.00
30.3758 644.00
30.441 681.00
30.5062 722.00
30.5714 748.00
30.6366 685.00
30.7018 667.00
30.767 694.00
30.8322 654.00
30.8974 614.00
30.9626 678.00
31.0278 678.00
31.093 727.00
31.1582 710.00
31.2234 689.00
31.2886 631.00
31.3538 643.00
31.419 637.00
31.4842 653.00
31.5494 672.00
31.6146 728.00
31.6798 772.00
31.745 816.00
31.8102 1037.00
31.8754 1228.00
31.9406 1480.00
32.0058 1490.00
32.071 1308.00
32.1362 1051.00
32.2014 926.00
32.2666 780.00
32.3318 673.00
32.397 662.00
32.4622 623.00
32.5274 627.00
32.5926 624.00
32.6578 677.00
32.723 654.00
32.7882 665.00
32.8534 650.00
32.9186 644.00
32.9838 670.00
33.0489 678.00
33.1141 675.00
33.1793 752.00
33.2445 983.00
33.3097 1138.00
33.3749 1333.00
33.4401 1505.00
33.5053 1801.00
33.5705 2522.00
33.6357 3368.00
33.7009 2909.00
33.7661 2338.00
33.8313 2145.00
33.8965 2561.00
33.9617 3042.00
34.0269 2788.00
34.0921 2308.00
34.1573 2127.00
34.2225 2065.00
34.2877 2430.00
34.3529 2742.00
34.4181 3274.00
34.4833 4435.00
34.5485 4768.00
34.6137 3503.00
34.6789 2304.00
34.7441 1579.00
34.8093 1414.00
34.8745 1125.00
34.9397 941.00
35.0049 811.00
35.0701 712.00
35.1353 706.00
35.2005 641.00
35.2657 670.00
35.3309 657.00
35.3961 608.00
35.4613 623.00
35.5265 669.00
35.5917 646.00
35.6569 743.00
35.7221 826.00
35.7873 958.00
35.8525 1018.00
35.9177 1058.00
35.9829 1032.00
36.0481 1052.00
36.1133 938.00
36.1785 894.00
36.2437 908.00
36.3089 948.00
36.3741 971.00
36.4393 881.00
36.5045 795.00
36.5697 702.00
36.6349 630.00
36.7001 576.00
36.7653 531.00
36.8305 547.00
36.8957 511.00
36.9609 523.00
37.0261 540.00
37.0913 477.00
37.1565 567.00
37.2217 491.00
37.2869 516.00
37.3521 479.00
37.4173 483.00
37.4825 489.00
37.5477 488.00
37.6129 537.00
37.6781 512.00
37.7433 477.00
37.8085 487.00
37.8736 491.00
37.9388 498.00
38.004 459.00
38.0692 476.00
38.1344 523.00
38.1996 472.00
38.2648 484.00
38.33 515.00
38.3952 498.00
38.4604 521.00
38.5256 514.00
38.5908 446.00
38.656 460.00
38.7212 494.00
38.7864 448.00
38.8516 503.00
38.9168 503.00
38.982 508.00
39.0472 527.00
39.1124 592.00
39.1776 546.00
39.2428 648.00
39.308 670.00
39.3732 678.00
39.4384 827.00
39.5036 942.00
39.5688 1219.00
39.634 1605.00
39.6992 2296.00
39.7644 3264.00
39.8296 4062.00
39.8948 3916.00
39.96 3150.00
40.0252 2260.00
40.0904 1655.00
40.1556 1293.00
40.2208 936.00
40.286 800.00
40.3512 670.00
40.4164 656.00
40.4816 584.00
40.5468 576.00
40.612 536.00
40.6772 521.00
40.7424 584.00
40.8076 503.00
40.8728 537.00
40.938 541.00
41.0032 513.00
41.0684 528.00
41.1336 517.00
41.1988 525.00
41.264 591.00
41.3292 592.00
41.3944 540.00
41.4596 609.00
41.5248 627.00
41.59 630.00
41.6552 711.00
41.7204 877.00
41.7856 1128.00
41.8508 1143.00
41.916 1157.00
41.9812 1076.00
42.0464 1111.00
42.1116 1209.00
42.1768 1431.00
42.242 1749.00
42.3072 1707.00
42.3724 1487.00
42.4376 1259.00
42.5028 1241.00
42.568 1186.00
42.6332 1127.00
42.6983 1019.00
42.7635 799.00
42.8287 693.00
42.8939 648.00
42.9591 560.00
43.0243 499.00
43.0895 503.00
43.1547 476.00
43.2199 491.00
43.2851 510.00
43.3503 470.00
43.4155 468.00
43.4807 464.00
43.5459 478.00
43.6111 437.00
43.6763 427.00
43.7415 449.00
43.8067 408.00
43.8719 448.00
43.9371 464.00
44.0023 452.00
44.0675 443.00
44.1327 428.00
44.1979 421.00
44.2631 494.00
44.3283 448.00
44.3935 479.00
44.4587 495.00
44.5239 590.00
44.5891 641.00
44.6543 746.00
44.7195 661.00
44.7847 566.00
44.8499 574.00
44.9151 583.00
44.9803 607.00
45.0455 671.00
45.1107 680.00
45.1759 789.00
45.2411 720.00
45.3063 767.00
45.3715 682.00
45.4367 682.00
45.5019 545.00
45.5671 597.00
45.6323 641.00
45.6975 630.00
45.7627 687.00
45.8279 703.00
45.8931 652.00
45.9583 615.00
46.0235 637.00
46.0887 633.00
46.1539 619.00
46.2191 652.00
46.2843 676.00
46.3495 680.00
46.4147 659.00
46.4799 577.00
46.5451 503.00
46.6103 472.00
46.6755 464.00
46.7407 448.00
46.8059 434.00
46.8711 441.00
46.9363 484.00
47.0015 439.00
47.0667 527.00
47.1319 550.00
47.1971 584.00
47.2623 664.00
47.3275 820.00
47.3927 1076.00
47.4579 1211.00
47.523 1549.00
47.5882 1655.00
47.6534 1533.00
47.7186 1211.00
47.7838 940.00
47.849 715.00
47.9142 590.00
47.9794 584.00
48.0446 601.00
48.1098 688.00
48.175 700.00
48.2402 723.00
48.3054 948.00
48.3706 1084.00
48.4358 1404.00
48.501 1900.00
48.5662 2281.00
48.6314 2672.00
48.6966 2653.00
48.7618 2676.00
48.827 2548.00
48.8922 2981.00
48.9574 3208.00
49.0226 3400.00
49.0878 3050.00
49.153 2571.00
49.2182 2076.00
49.2834 1497.00
49.3486 1139.00
49.4138 947.00
49.479 794.00
49.5442 773.00
49.6094 656.00
49.6746 623.00
49.7398 681.00
49.805 614.00
49.8702 706.00
49.9354 727.00
50.0006 825.00
50.0658 983.00
50.131 1439.00
50.1962 2250.00
50.2614 2921.00
50.3266 2817.00
50.3918 2364.00
50.457 1960.00
50.5222 1433.00
50.5874 1379.00
50.6526 1429.00
50.7178 1453.00
50.783 1362.00
50.8482 1219.00
50.9134 1239.00
50.9786 1306.00
51.0438 1447.00
51.109 1317.00
51.1742 1193.00
51.2394 953.00
51.3046 822.00
51.3698 667.00
51.435 593.00
51.5002 476.00
51.5654 465.00
51.6306 474.00
51.6958 421.00
51.761 431.00
51.8262 396.00
51.8914 419.00
51.9566 425.00
52.0218 378.00
52.087 401.00
52.1522 376.00
52.2174 396.00
52.2826 368.00
52.3477 362.00
52.4129 374.00
52.4781 380.00
52.5433 391.00
52.6085 366.00
52.6737 357.00
52.7389 352.00
52.8041 374.00
52.8693 398.00
52.9345 439.00
52.9997 361.00
53.0649 377.00
53.1301 371.00
53.1953 409.00
53.2605 416.00
53.3257 460.00
53.3909 503.00
53.4561 554.00
53.5213 515.00
53.5865 564.00
53.6517 633.00
53.7169 823.00
53.7821 1109.00
53.8473 1172.00
53.9125 1037.00
53.9777 988.00
54.0429 840.00
54.1081 789.00
54.1733 736.00
54.2385 714.00
54.3037 808.00
54.3689 786.00
54.4341 1015.00
54.4993 1216.00
54.5645 1182.00
54.6297 1123.00
54.6949 950.00
54.7601 866.00
54.8253 785.00
54.8905 751.00
54.9557 749.00
55.0209 952.00
55.0861 1229.00
55.1513 1306.00
55.2165 1185.00
55.2817 1161.00
55.3469 1055.00
55.4121 1185.00
55.4773 1289.00
55.5425 1462.00
55.6077 1920.00
55.6729 1954.00
55.7381 1900.00
55.8033 1722.00
55.8685 1565.00
55.9337 1534.00
55.9989 1551.00
56.0641 1555.00
56.1293 1770.00
56.1945 1805.00
56.2597 1954.00
56.3249 1906.00
56.3901 1768.00
56.4553 1654.00
56.5205 1338.00
56.5857 1306.00
56.6509 1173.00
56.7161 1036.00
56.7813 865.00
56.8465 768.00
56.9117 655.00
56.9769 518.00
57.042 537.00
57.1073 464.00
57.1724 441.00
57.2376 477.00
57.3028 430.00
57.368 427.00
57.4332 398.00
57.4984 384.00
57.5636 419.00
57.6288 369.00
57.694 388.00
57.7592 413.00
57.8244 385.00
57.8896 451.00
57.9548 530.00
58.02 550.00
58.0852 575.00
58.1504 602.00
58.2156 581.00
58.2808 579.00
58.346 565.00
58.4112 537.00
58.4764 492.00
58.5416 470.00
58.6068 483.00
58.672 518.00
58.7372 467.00
58.8024 449.00
58.8676 477.00
58.9328 476.00
58.998 537.00
59.0632 588.00
59.1284 616.00
59.1936 562.00
59.2588 536.00
59.324 560.00
59.3892 553.00
59.4544 512.00
59.5196 575.00
59.5848 553.00
59.65 599.00
59.7152 532.00
59.7804 549.00
59.8456 494.00
59.9108 535.00
59.976 526.00
60.0412 554.00
60.1064 604.00
60.1716 637.00
60.2368 683.00
60.302 760.00
60.3672 775.00
60.4324 818.00
60.4976 820.00
60.5628 740.00
60.628 764.00
60.6932 821.00
60.7584 866.00
60.8236 793.00
60.8888 753.00
60.954 706.00
61.0192 610.00
61.0844 622.00
61.1496 635.00
61.2148 630.00
61.28 699.00
61.3452 734.00
61.4104 745.00
61.4756 735.00
61.5408 684.00
61.606 682.00
61.6712 676.00
61.7364 741.00
61.8016 784.00
61.8667 839.00
61.932 882.00
61.9971 960.00
62.0623 958.00
62.1275 930.00
62.1927 925.00
62.2579 910.00
62.3231 780.00
62.3883 828.00
62.4535 849.00
62.5187 984.00
62.5839 1112.00
62.6491 1028.00
62.7143 951.00
62.7795 866.00
62.8447 778.00
62.9099 595.00
62.9751 607.00
63.0403 598.00
63.1055 587.00
63.1707 587.00
63.2359 532.00
63.3011 488.00
63.3663 533.00
63.4315 540.00
63.4967 578.00
63.5619 652.00
63.6271 654.00
63.6923 630.00
63.7575 595.00
63.8227 565.00
63.8879 486.00
63.9531 487.00
64.0183 524.00
64.0835 615.00
64.1487 729.00
64.2139 767.00
64.2791 960.00
64.3443 947.00
64.4095 972.00
64.4747 857.00
64.5399 745.00
64.6051 690.00
64.6703 590.00
64.7355 531.00
64.8007 465.00
64.8659 414.00
64.9311 447.00
64.9963 411.00
65.0615 401.00
65.1267 381.00
65.1919 434.00
65.2571 516.00
65.3223 504.00
65.3875 521.00
65.4527 572.00
65.5179 536.00
65.5831 493.00
65.6483 452.00
65.7135 436.00
65.7787 401.00
65.8439 395.00
65.9091 391.00
65.9743 390.00
66.0395 370.00
66.1047 374.00
66.1699 406.00
66.2351 420.00
66.3003 466.00
66.3655 476.00
66.4307 423.00
66.4959 461.00
66.561 459.00
66.6263 433.00
66.6915 447.00
66.7566 448.00
66.8218 413.00
66.887 454.00
66.9522 456.00
67.0174 408.00
67.0826 414.00
67.1478 399.00
67.213 389.00
67.2782 423.00
67.3434 459.00
67.4086 452.00
67.4738 482.00
67.539 482.00
67.6042 484.00
67.6694 489.00
67.7346 474.00
67.7998 478.00
67.865 513.00
67.9302 544.00
67.9954 472.00
68.0606 440.00
68.1258 458.00
68.191 441.00
68.2562 432.00
68.3214 416.00
68.3866 388.00
68.4518 349.00
68.517 346.00
68.5822 377.00
68.6474 342.00
68.7126 351.00
68.7778 351.00
68.843 353.00
68.9082 333.00
68.9734 351.00
69.0386 331.00
69.1038 342.00
69.169 413.00
69.2342 408.00
69.2994 375.00
69.3646 404.00
69.4298 406.00
69.495 402.00
69.5602 406.00
69.6254 437.00
69.6906 495.00
69.7558 533.00
69.821 695.00
69.8862 688.00
69.9514 822.00
70.0166 886.00
70.0818 952.00
70.147 872.00
70.2122 835.00
70.2774 741.00
70.3426 695.00
70.4078 582.00
70.473 541.00
70.5382 458.00
70.6034 492.00
70.6686 500.00
70.7338 499.00
70.799 522.00
70.8642 555.00
70.9294 544.00
70.9946 587.00
71.0598 562.00
71.125 603.00
71.1902 566.00
71.2554 568.00
71.3205 609.00
71.3858 617.00
71.451 531.00
71.5162 509.00
71.5813 561.00
71.6465 544.00
71.7117 528.00
71.7769 473.00
71.8421 494.00
71.9073 486.00
71.9725 431.00
72.0377 492.00
72.1029 564.00
72.1681 629.00
72.2333 639.00
72.2985 688.00
72.3637 595.00
72.4289 565.00
72.4941 529.00
72.5593 483.00
72.6245 425.00
72.6897 437.00
72.7549 455.00
72.8201 423.00
72.8853 460.00
72.9505 528.00
73.0157 492.00
73.0809 505.00
73.1461 484.00
73.2113 474.00
73.2765 452.00
73.3417 433.00
73.4069 430.00
73.4721 412.00
73.5373 395.00
73.6025 438.00
73.6677 386.00
73.7329 400.00
73.7981 439.00
73.8633 453.00
73.9285 480.00
73.9937 427.00
74.0589 444.00
74.1241 436.00
74.1893 436.00
74.2545 436.00
74.3197 371.00
74.3849 367.00
74.4501 364.00
74.5153 393.00
74.5805 350.00
74.6457 325.00
74.7109 357.00
74.7761 343.00
74.8413 330.00
74.9065 329.00
74.9717 373.00
75.0369 373.00
75.1021 362.00
75.1673 408.00
75.2325 397.00
75.2977 387.00
75.3629 408.00
75.4281 449.00
75.4933 393.00
75.5585 413.00
75.6237 437.00
75.6889 527.00
75.7541 530.00
75.8193 579.00
75.8845 627.00
75.9497 609.00
76.0149 691.00
76.0801 708.00
76.1452 697.00
76.2104 759.00
76.2756 758.00
76.3409 811.00
76.406 857.00
76.4712 889.00
76.5364 1019.00
76.6016 964.00
76.6668 916.00
76.732 1068.00
76.7972 1076.00
76.8624 1053.00
76.9276 1072.00
76.9928 1102.00
77.058 1066.00
77.1232 1061.00
77.1884 1127.00
77.2536 1102.00
77.3188 1108.00
77.384 1113.00
77.4492 1113.00
77.5144 1056.00
77.5796 1019.00
77.6448 1085.00
77.71 1059.00
77.7752 1036.00
77.8404 1068.00
77.9056 994.00
77.9708 949.00
78.036 825.00
78.1012 716.00
78.1664 660.00
78.2316 592.00
78.2968 488.00
78.362 538.00
78.4272 512.00
78.4924 477.00
78.5576 499.00
78.6228 509.00
78.688 538.00
78.7532 574.00
78.8184 608.00
78.8836 597.00
78.9488 589.00
79.014 540.00
79.0792 524.00
79.1444 458.00
79.2096 465.00
79.2748 407.00
79.34 357.00
79.4052 335.00
79.4704 351.00
79.5356 322.00
79.6008 367.00
79.666 334.00
79.7312 311.00
79.7964 337.00
79.8616 344.00
79.9268 316.00
79.992 335.00
80.0572 353.00
80.1224 355.00
80.1876 361.00
80.2528 338.00
80.318 323.00
80.3832 351.00
80.4484 341.00
80.5136 388.00
80.5788 377.00
80.644 379.00
80.7092 356.00
80.7744 335.00
80.8396 365.00
80.9048 352.00
80.9699 342.00
81.0351 360.00
81.1003 379.00
81.1655 397.00
81.2307 441.00
81.2959 439.00
81.3611 435.00
81.4263 418.00
81.4915 448.00
81.5567 442.00
81.6219 422.00
81.6871 424.00
81.7523 459.00
81.8175 534.00
81.8827 588.00
81.9479 579.00
82.0131 545.00
82.0783 528.00
82.1435 562.00
82.2087 535.00
82.2739 576.00
82.3391 562.00
82.4043 551.00
82.4695 602.00
82.5347 611.00
82.5999 597.00
82.6651 643.00
82.7303 612.00
82.7955 637.00
82.8607 559.00
82.9259 567.00
82.9911 575.00
83.0563 510.00
83.1215 531.00
83.1867 524.00
83.2519 477.00
83.3171 482.00
83.3823 455.00
83.4475 503.00
83.5127 483.00
83.5779 545.00
83.6431 608.00
83.7083 633.00
83.7735 572.00
83.8387 611.00
83.9039 573.00
83.9691 591.00
84.0343 599.00
84.0995 521.00
84.1647 461.00
84.2299 444.00
84.2951 386.00
84.3603 392.00
84.4255 386.00
84.4907 395.00
84.5559 377.00
84.6211 380.00
84.6863 363.00
84.7515 399.00
84.8167 360.00
84.8819 382.00
84.9471 405.00
85.0123 397.00
85.0775 440.00
85.1427 496.00
85.2079 511.00
85.2731 513.00
85.3383 496.00
85.4035 449.00
85.4687 441.00
85.5339 454.00
85.5991 400.00
85.6643 420.00
85.7295 398.00
85.7946 453.00
85.8598 424.00
85.925 446.00
85.9903 464.00
86.0554 527.00
86.1206 549.00
86.1858 544.00
86.251 595.00
86.3162 586.00
86.3814 655.00
86.4466 610.00
86.5118 562.00
86.577 589.00
86.6422 583.00
86.7074 572.00
86.7726 480.00
86.8378 481.00
86.903 516.00
86.9682 486.00
87.0334 462.00
87.0986 498.00
87.1638 418.00
87.229 451.00
87.2942 464.00
87.3594 454.00
87.4246 530.00
87.4898 558.00
87.555 600.00
87.6202 566.00
87.6854 633.00
87.7506 631.00
87.8158 589.00
87.881 632.00
87.9462 544.00
88.0114 538.00
88.0766 505.00
88.1418 489.00
88.207 529.00
88.2722 547.00
88.3374 491.00
88.4026 498.00
88.4678 497.00
88.533 513.00
88.5982 551.00
88.6634 553.00
88.7286 579.00
88.7938 611.00
88.859 612.00
88.9242 634.00
88.9894 701.00
89.0546 682.00
89.1198 641.00
89.185 642.00
89.2502 580.00
89.3154 542.00
89.3806 536.00
89.4458 436.00
89.511 422.00
89.5762 391.00
89.6414 416.00
89.7066 408.00
89.7718 402.00
89.837 424.00
89.9022 385.00
89.9674 376.00
90.0326 387.00
90.0978 381.00
90.163 438.00
90.2282 429.00
90.2934 452.00
90.3586 489.00
90.4238 479.00
90.489 490.00
90.5542 512.00
90.6193 507.00
90.6845 467.00
90.7497 465.00
90.8149 474.00
90.8801 493.00
90.9453 417.00
91.0105 464.00
91.0757 392.00
91.1409 410.00
91.2061 411.00
91.2713 378.00
91.3365 399.00
91.4017 429.00
91.4669 443.00
91.5321 394.00
91.5973 460.00
91.6625 444.00
91.7277 424.00
91.7929 450.00
91.8581 450.00
91.9233 475.00
91.9885 379.00
92.0537 460.00
92.1189 445.00
92.1841 440.00
92.2493 478.00
92.3145 454.00
92.3797 445.00
92.4449 446.00
92.5101 427.00
92.5753 392.00
92.6405 410.00
92.7057 387.00
92.7709 366.00
92.8361 319.00
92.9013 329.00
92.9665 346.00
93.0317 328.00
93.0969 386.00
93.1621 351.00
93.2273 361.00
93.2925 389.00
93.3577 329.00
93.4229 318.00
93.4881 330.00
93.5533 369.00
93.6185 326.00
93.6837 301.00
93.7489 317.00
93.8141 307.00
93.8793 342.00
93.9445 322.00
94.0097 310.00
94.0749 356.00
94.1401 303.00
94.2053 316.00
94.2705 374.00
94.3357 336.00
94.4009 393.00
94.4661 331.00
94.5313 341.00
94.5965 359.00
94.6617 350.00
94.7269 416.00
94.7921 387.00
94.8573 363.00
94.9225 365.00
94.9877 356.00
95.0529 370.00
95.1181 424.00
95.1833 400.00
95.2485 363.00
95.3137 382.00
95.3789 387.00
95.444 426.00
95.5092 446.00
95.5744 542.00
95.6396 547.00
95.7048 646.00
95.77 603.00
95.8352 641.00
95.9004 723.00
95.9656 674.00
96.0308 681.00
96.096 647.00
96.1612 579.00
96.2264 593.00
96.2916 545.00
96.3568 545.00
96.422 530.00
96.4872 472.00
96.5524 494.00
96.6176 502.00
96.6828 490.00
96.748 515.00
96.8132 515.00
96.8784 482.00
96.9436 570.00
97.0088 545.00
97.074 567.00
97.1392 533.00
97.2044 548.00
97.2696 590.00
97.3348 527.00
97.4 538.00
97.4652 491.00
97.5304 470.00
97.5956 421.00
97.6608 397.00
97.726 395.00
97.7912 387.00
97.8564 415.00
97.9216 358.00
97.9868 410.00
98.052 424.00
98.1172 384.00
98.1824 388.00
98.2476 344.00
98.3128 359.00
98.378 343.00
98.4432 340.00
98.5084 349.00
98.5736 336.00
98.6388 315.00
98.704 304.00
98.7692 285.00
98.8344 342.00
98.8996 323.00
98.9648 351.00
99.03 325.00
99.0952 321.00
99.1604 341.00
99.2256 325.00
99.2908 327.00
99.356 301.00
99.4212 323.00
99.4864 284.00
99.5516 312.00
99.6168 308.00
99.682 304.00
99.7472 316.00
99.8124 349.00
99.8776 300.00
99.9428 318.00
100.008 339.00
100.073 321.00
100.095 313.00