File: data/xrd_creation/results/PG_2438-1.xy
9.903433 2556.00
9.968632 2508.00
10.0338 2480.00
10.099 2445.00
10.1642 2401.00
10.2294 2353.00
10.2946 2307.00
10.3598 2376.00
10.425 2303.00
10.4902 2342.00
10.5554 2290.00
10.6206 2281.00
10.6858 2259.00
10.751 2281.00
10.8162 2206.00
10.8814 2106.00
10.9466 2135.00
11.0118 2122.00
11.077 2064.00
11.1422 2150.00
11.2074 2123.00
11.2726 1983.00
11.3378 2039.00
11.403 2014.00
11.4682 2017.00
11.5334 1990.00
11.5986 1972.00
11.6638 1902.00
11.729 1901.00
11.7942 1913.00
11.8594 1870.00
11.9246 1905.00
11.9898 1808.00
12.055 1767.00
12.1202 1819.00
12.1854 1754.00
12.2506 1724.00
12.3158 1776.00
12.381 1749.00
12.4462 1648.00
12.5114 1719.00
12.5766 1740.00
12.6418 1607.00
12.707 1620.00
12.7722 1601.00
12.8374 1524.00
12.9026 1675.00
12.9678 1590.00
13.033 1530.00
13.0982 1575.00
13.1634 1614.00
13.2286 1527.00
13.2938 1600.00
13.359 1520.00
13.4242 1507.00
13.4894 1473.00
13.5546 1555.00
13.6198 1469.00
13.685 1486.00
13.7502 1519.00
13.8154 1433.00
13.8805 1504.00
13.9457 1442.00
14.0109 1469.00
14.0761 1355.00
14.1413 1438.00
14.2065 1363.00
14.2717 1369.00
14.3369 1407.00
14.4021 1388.00
14.4673 1396.00
14.5325 1346.00
14.5977 1368.00
14.6629 1305.00
14.7281 1345.00
14.7933 1326.00
14.8585 1317.00
14.9237 1312.00
14.9889 1263.00
15.0541 1299.00
15.1193 1296.00
15.1845 1280.00
15.2497 1302.00
15.3149 1247.00
15.3801 1233.00
15.4453 1194.00
15.5105 1242.00
15.5757 1254.00
15.6409 1230.00
15.7061 1224.00
15.7713 1191.00
15.8365 1184.00
15.9017 1276.00
15.9669 1182.00
16.0321 1220.00
16.0973 1222.00
16.1625 1218.00
16.2277 1198.00
16.2929 1146.00
16.3581 1171.00
16.4233 1158.00
16.4885 1111.00
16.5537 1157.00
16.6189 1141.00
16.6841 1185.00
16.7493 1137.00
16.8145 1168.00
16.8797 1090.00
16.9449 1171.00
17.0101 1129.00
17.0753 1137.00
17.1405 1109.00
17.2057 1071.00
17.2709 1101.00
17.3361 1092.00
17.4013 1073.00
17.4665 1025.00
17.5317 1076.00
17.5969 1091.00
17.6621 1072.00
17.7273 1037.00
17.7925 1025.00
17.8577 1074.00
17.9229 1080.00
17.9881 1095.00
18.0533 1065.00
18.1185 1065.00
18.1837 1013.00
18.2489 991.00
18.3141 939.00
18.3793 1032.00
18.4445 998.00
18.5097 966.00
18.5749 973.00
18.6401 1009.00
18.7052 973.00
18.7704 979.00
18.8356 968.00
18.9008 928.00
18.966 963.00
19.0312 1016.00
19.0964 1000.00
19.1616 969.00
19.2268 924.00
19.292 962.00
19.3572 923.00
19.4224 925.00
19.4876 944.00
19.5528 886.00
19.618 883.00
19.6832 867.00
19.7484 913.00
19.8136 893.00
19.8788 843.00
19.944 889.00
20.0092 877.00
20.0744 878.00
20.1396 830.00
20.2048 892.00
20.27 862.00
20.3352 880.00
20.4004 859.00
20.4656 881.00
20.5308 823.00
20.596 850.00
20.6612 858.00
20.7264 820.00
20.7916 822.00
20.8568 844.00
20.922 833.00
20.9872 791.00
21.0524 754.00
21.1176 831.00
21.1828 748.00
21.248 842.00
21.3132 867.00
21.3784 803.00
21.4436 770.00
21.5088 807.00
21.574 851.00
21.6392 730.00
21.7044 803.00
21.7696 745.00
21.8348 760.00
21.9 784.00
21.9652 766.00
22.0304 787.00
22.0956 753.00
22.1608 767.00
22.226 759.00
22.2912 772.00
22.3564 771.00
22.4216 771.00
22.4868 765.00
22.552 714.00
22.6172 753.00
22.6824 770.00
22.7476 717.00
22.8128 726.00
22.878 692.00
22.9432 753.00
23.0084 754.00
23.0736 689.00
23.1388 726.00
23.204 745.00
23.2692 752.00
23.3344 707.00
23.3996 726.00
23.4647 692.00
23.5299 716.00
23.5951 686.00
23.6603 683.00
23.7255 700.00
23.7907 706.00
23.8559 680.00
23.9211 689.00
23.9863 706.00
24.0515 698.00
24.1167 691.00
24.1819 679.00
24.2471 713.00
24.3123 728.00
24.3775 670.00
24.4427 714.00
24.5079 676.00
24.5731 623.00
24.6383 696.00
24.7035 671.00
24.7687 636.00
24.8339 628.00
24.8991 662.00
24.9643 664.00
25.0295 642.00
25.0947 670.00
25.1599 653.00
25.2251 640.00
25.2903 631.00
25.3555 640.00
25.4207 599.00
25.4859 607.00
25.5511 633.00
25.6163 590.00
25.6815 637.00
25.7467 604.00
25.8119 596.00
25.8771 607.00
25.9423 591.00
26.0075 620.00
26.0727 632.00
26.1379 612.00
26.2031 628.00
26.2683 626.00
26.3335 591.00
26.3987 585.00
26.4639 603.00
26.5291 584.00
26.5943 566.00
26.6595 583.00
26.7247 591.00
26.7899 520.00
26.8551 605.00
26.9203 584.00
26.9855 572.00
27.0507 566.00
27.1159 606.00
27.1811 580.00
27.2463 601.00
27.3115 562.00
27.3767 568.00
27.4419 560.00
27.5071 598.00
27.5723 581.00
27.6375 565.00
27.7027 573.00
27.7679 524.00
27.8331 546.00
27.8983 568.00
27.9635 576.00
28.0287 580.00
28.0939 587.00
28.1591 557.00
28.2243 571.00
28.2894 579.00
28.3546 574.00
28.4198 463.00
28.485 503.00
28.5502 523.00
28.6154 542.00
28.6806 559.00
28.7458 539.00
28.811 574.00
28.8762 548.00
28.9414 521.00
29.0066 541.00
29.0718 534.00
29.137 525.00
29.2022 562.00
29.2674 491.00
29.3326 520.00
29.3978 540.00
29.463 532.00
29.5282 534.00
29.5934 525.00
29.6586 525.00
29.7238 556.00
29.789 495.00
29.8542 496.00
29.9194 476.00
29.9846 496.00
30.0498 502.00
30.115 482.00
30.1802 540.00
30.2454 515.00
30.3106 533.00
30.3758 511.00
30.441 483.00
30.5062 508.00
30.5714 520.00
30.6366 477.00
30.7018 477.00
30.767 495.00
30.8322 459.00
30.8974 501.00
30.9626 474.00
31.0278 481.00
31.093 487.00
31.1582 503.00
31.2234 480.00
31.2886 470.00
31.3538 450.00
31.419 482.00
31.4842 436.00
31.5494 469.00
31.6146 445.00
31.6798 494.00
31.745 469.00
31.8102 479.00
31.8754 470.00
31.9406 428.00
32.0058 462.00
32.071 450.00
32.1362 451.00
32.2014 437.00
32.2666 450.00
32.3318 442.00
32.397 461.00
32.4622 436.00
32.5274 447.00
32.5926 436.00
32.6578 395.00
32.723 404.00
32.7882 457.00
32.8534 439.00
32.9186 429.00
32.9838 401.00
33.0489 433.00
33.1141 446.00
33.1793 404.00
33.2445 460.00
33.3097 410.00
33.3749 418.00
33.4401 414.00
33.5053 405.00
33.5705 418.00
33.6357 407.00
33.7009 438.00
33.7661 389.00
33.8313 384.00
33.8965 408.00
33.9617 426.00
34.0269 384.00
34.0921 431.00
34.1573 377.00
34.2225 404.00
34.2877 406.00
34.3529 433.00
34.4181 388.00
34.4833 345.00
34.5485 392.00
34.6137 413.00
34.6789 411.00
34.7441 363.00
34.8093 419.00
34.8745 403.00
34.9397 367.00
35.0049 403.00
35.0701 403.00
35.1353 394.00
35.2005 399.00
35.2657 376.00
35.3309 393.00
35.3961 367.00
35.4613 376.00
35.5265 382.00
35.5917 390.00
35.6569 400.00
35.7221 405.00
35.7873 401.00
35.8525 377.00
35.9177 359.00
35.9829 366.00
36.0481 375.00
36.1133 356.00
36.1785 375.00
36.2437 347.00
36.3089 363.00
36.3741 343.00
36.4393 311.00
36.5045 399.00
36.5697 361.00
36.6349 345.00
36.7001 342.00
36.7653 348.00
36.8305 368.00
36.8957 349.00
36.9609 407.00
37.0261 348.00
37.0913 371.00
37.1565 333.00
37.2217 372.00
37.2869 365.00
37.3521 356.00
37.4173 363.00
37.4825 375.00
37.5477 348.00
37.6129 328.00
37.6781 338.00
37.7433 365.00
37.8085 340.00
37.8736 296.00
37.9388 336.00
38.004 399.00
38.0692 320.00
38.1344 384.00
38.1996 334.00
38.2648 313.00
38.33 339.00
38.3952 355.00
38.4604 349.00
38.5256 371.00
38.5908 314.00
38.656 341.00
38.7212 328.00
38.7864 341.00
38.8516 299.00
38.9168 352.00
38.982 372.00
39.0472 309.00
39.1124 306.00
39.1776 319.00
39.2428 335.00
39.308 372.00
39.3732 350.00
39.4384 304.00
39.5036 336.00
39.5688 328.00
39.634 355.00
39.6992 314.00
39.7644 328.00
39.8296 324.00
39.8948 343.00
39.96 353.00
40.0252 298.00
40.0904 312.00
40.1556 314.00
40.2208 328.00
40.286 283.00
40.3512 302.00
40.4164 327.00
40.4816 311.00
40.5468 305.00
40.612 320.00
40.6772 296.00
40.7424 302.00
40.8076 294.00
40.8728 354.00
40.938 289.00
41.0032 336.00
41.0684 317.00
41.1336 291.00
41.1988 306.00
41.264 314.00
41.3292 306.00
41.3944 273.00
41.4596 302.00
41.5248 275.00
41.59 326.00
41.6552 326.00
41.7204 312.00
41.7856 291.00
41.8508 327.00
41.916 240.00
41.9812 288.00
42.0464 278.00
42.1116 312.00
42.1768 296.00
42.242 276.00
42.3072 303.00
42.3724 284.00
42.4376 270.00
42.5028 293.00
42.568 294.00
42.6332 288.00
42.6983 290.00
42.7635 315.00
42.8287 267.00
42.8939 279.00
42.9591 294.00
43.0243 228.00
43.0895 296.00
43.1547 290.00
43.2199 284.00
43.2851 276.00
43.3503 281.00
43.4155 267.00
43.4807 309.00
43.5459 272.00
43.6111 274.00
43.6763 258.00
43.7415 240.00
43.8067 293.00
43.8719 257.00
43.9371 312.00
44.0023 240.00
44.0675 277.00
44.1327 267.00
44.1979 268.00
44.2631 287.00
44.3283 268.00
44.3935 293.00
44.4587 273.00
44.5239 312.00
44.5891 284.00
44.6543 299.00
44.7195 258.00
44.7847 282.00
44.8499 276.00
44.9151 290.00
44.9803 291.00
45.0455 245.00
45.1107 271.00
45.1759 270.00
45.2411 267.00
45.3063 259.00
45.3715 297.00
45.4367 301.00
45.5019 259.00
45.5671 265.00
45.6323 269.00
45.6975 273.00
45.7627 287.00
45.8279 260.00
45.8931 264.00
45.9583 273.00
46.0235 257.00
46.0887 287.00
46.1539 275.00
46.2191 258.00
46.2843 243.00
46.3495 265.00
46.4147 236.00
46.4799 270.00
46.5451 285.00
46.6103 260.00
46.6755 256.00
46.7407 244.00
46.8059 247.00
46.8711 244.00
46.9363 248.00
47.0015 282.00
47.0667 260.00
47.1319 233.00
47.1971 282.00
47.2623 263.00
47.3275 246.00
47.3927 238.00
47.4579 271.00
47.523 261.00
47.5882 247.00
47.6534 222.00
47.7186 227.00
47.7838 257.00
47.849 233.00
47.9142 240.00
47.9794 232.00
48.0446 281.00
48.1098 237.00
48.175 229.00
48.2402 224.00
48.3054 236.00
48.3706 243.00
48.4358 266.00
48.501 243.00
48.5662 233.00
48.6314 230.00
48.6966 267.00
48.7618 238.00
48.827 247.00
48.8922 215.00
48.9574 216.00
49.0226 260.00
49.0878 246.00
49.153 239.00
49.2182 223.00
49.2834 242.00
49.3486 221.00
49.4138 247.00
49.479 246.00
49.5442 256.00
49.6094 263.00
49.6746 262.00
49.7398 234.00
49.805 239.00
49.8702 265.00
49.9354 205.00
50.0006 260.00
50.0658 236.00
50.131 243.00
50.1962 214.00
50.2614 260.00
50.3266 258.00
50.3918 274.00
50.457 230.00
50.5222 204.00
50.5874 224.00
50.6526 199.00
50.7178 207.00
50.783 224.00
50.8482 229.00
50.9134 221.00
50.9786 245.00
51.0438 216.00
51.109 204.00
51.1742 234.00
51.2394 232.00
51.3046 257.00
51.3698 207.00
51.435 257.00
51.5002 217.00
51.5654 248.00
51.6306 222.00
51.6958 198.00
51.761 232.00
51.8262 226.00
51.8914 233.00
51.9566 245.00
52.0218 221.00
52.087 256.00
52.1522 232.00
52.2174 247.00
52.2826 233.00
52.3477 236.00
52.4129 231.00
52.4781 191.00
52.5433 232.00
52.6085 232.00
52.6737 236.00
52.7389 238.00
52.8041 243.00
52.8693 223.00
52.9345 188.00
52.9997 215.00
53.0649 217.00
53.1301 213.00
53.1953 228.00
53.2605 229.00
53.3257 204.00
53.3909 247.00
53.4561 236.00
53.5213 214.00
53.5865 229.00
53.6517 233.00
53.7169 191.00
53.7821 230.00
53.8473 234.00
53.9125 213.00
53.9777 218.00
54.0429 207.00
54.1081 220.00
54.1733 221.00
54.2385 191.00
54.3037 232.00
54.3689 215.00
54.4341 240.00
54.4993 219.00
54.5645 203.00
54.6297 222.00
54.6949 225.00
54.7601 232.00
54.8253 195.00
54.8905 219.00
54.9557 232.00
55.0209 202.00
55.0861 199.00
55.1513 201.00
55.2165 198.00
55.2817 226.00
55.3469 214.00
55.4121 217.00
55.4773 226.00
55.5425 195.00
55.6077 212.00
55.6729 196.00
55.7381 197.00
55.8033 208.00
55.8685 201.00
55.9337 164.00
55.9989 187.00
56.0641 229.00
56.1293 209.00
56.1945 210.00
56.2597 203.00
56.3249 186.00
56.3901 204.00
56.4553 203.00
56.5205 163.00
56.5857 201.00
56.6509 200.00
56.7161 214.00
56.7813 224.00
56.8465 184.00
56.9117 200.00
56.9769 205.00
57.042 186.00
57.1073 211.00
57.1724 177.00
57.2376 176.00
57.3028 184.00
57.368 206.00
57.4332 205.00
57.4984 211.00
57.5636 167.00
57.6288 179.00
57.694 207.00
57.7592 172.00
57.8244 192.00
57.8896 216.00
57.9548 202.00
58.02 190.00
58.0852 199.00
58.1504 222.00
58.2156 178.00
58.2808 187.00
58.346 192.00
58.4112 195.00
58.4764 168.00
58.5416 170.00
58.6068 186.00
58.672 191.00
58.7372 200.00
58.8024 195.00
58.8676 191.00
58.9328 180.00
58.998 191.00
59.0632 180.00
59.1284 181.00
59.1936 187.00
59.2588 202.00
59.324 197.00
59.3892 181.00
59.4544 180.00
59.5196 196.00
59.5848 187.00
59.65 200.00
59.7152 187.00
59.7804 175.00
59.8456 189.00
59.9108 188.00
59.976 199.00
60.0412 161.00
60.1064 183.00
60.1716 207.00
60.2368 159.00
60.302 194.00
60.3672 167.00
60.4324 151.00
60.4976 190.00
60.5628 166.00
60.628 189.00
60.6932 203.00
60.7584 179.00
60.8236 185.00
60.8888 148.00
60.954 154.00
61.0192 210.00
61.0844 158.00
61.1496 162.00
61.2148 194.00
61.28 204.00
61.3452 181.00
61.4104 168.00
61.4756 174.00
61.5408 178.00
61.606 169.00
61.6712 193.00
61.7364 163.00
61.8016 189.00
61.8667 176.00
61.932 167.00
61.9971 174.00
62.0623 161.00
62.1275 189.00
62.1927 206.00
62.2579 171.00
62.3231 154.00
62.3883 187.00
62.4535 167.00
62.5187 168.00
62.5839 167.00
62.6491 144.00
62.7143 154.00
62.7795 179.00
62.8447 191.00
62.9099 159.00
62.9751 183.00
63.0403 175.00
63.1055 175.00
63.1707 177.00
63.2359 170.00
63.3011 149.00
63.3663 188.00
63.4315 179.00
63.4967 187.00
63.5619 172.00
63.6271 177.00
63.6923 188.00
63.7575 191.00
63.8227 170.00
63.8879 173.00
63.9531 141.00
64.0183 197.00
64.0835 166.00
64.1487 156.00
64.2139 167.00
64.2791 162.00
64.3443 172.00
64.4095 168.00
64.4747 171.00
64.5399 156.00
64.6051 165.00
64.6703 186.00
64.7355 182.00
64.8007 149.00
64.8659 162.00
64.9311 168.00
64.9963 160.00
65.0615 154.00
65.1267 160.00
65.1919 180.00
65.2571 146.00
65.3223 175.00
65.3875 162.00
65.4527 182.00
65.5179 148.00
65.5831 187.00
65.6483 174.00
65.7135 184.00
65.7787 184.00
65.8439 138.00
65.9091 197.00
65.9743 189.00
66.0395 173.00
66.1047 184.00
66.1699 184.00
66.2351 135.00
66.3003 173.00
66.3655 165.00
66.4307 170.00
66.4959 201.00
66.561 147.00
66.6263 195.00
66.6915 172.00
66.7566 177.00
66.8218 163.00
66.887 151.00
66.9522 158.00
67.0174 149.00
67.0826 153.00
67.1478 174.00
67.213 175.00
67.2782 189.00
67.3434 171.00
67.4086 182.00
67.4738 156.00
67.539 178.00
67.6042 171.00
67.6694 160.00
67.7346 132.00
67.7998 173.00
67.865 151.00
67.9302 159.00
67.9954 163.00
68.0606 156.00
68.1258 167.00
68.191 169.00
68.2562 169.00
68.3214 152.00
68.3866 154.00
68.4518 167.00
68.517 178.00
68.5822 179.00
68.6474 184.00
68.7126 194.00
68.7778 176.00
68.843 168.00
68.9082 170.00
68.9734 178.00
69.0386 176.00
69.1038 168.00
69.169 158.00
69.2342 169.00
69.2994 176.00
69.3646 185.00
69.4298 156.00
69.495 187.00
69.5602 165.00
69.6254 163.00
69.6906 179.00
69.7558 162.00
69.821 137.00
69.8862 142.00
69.9514 170.00
70.0166 151.00
70.0818 187.00
70.147 151.00
70.2122 193.00
70.2774 194.00
70.3426 180.00
70.4078 188.00
70.473 186.00
70.5382 179.00
70.6034 157.00
70.6686 158.00
70.7338 166.00
70.799 167.00
70.8642 162.00
70.9294 176.00
70.9946 154.00
71.0598 151.00
71.125 186.00
71.1902 171.00
71.2554 190.00
71.3205 179.00
71.3858 162.00
71.451 170.00
71.5162 191.00
71.5813 172.00
71.6465 169.00
71.7117 161.00
71.7769 161.00
71.8421 179.00
71.9073 171.00
71.9725 184.00
72.0377 155.00
72.1029 166.00
72.1681 185.00
72.2333 168.00
72.2985 153.00
72.3637 180.00
72.4289 193.00
72.4941 197.00
72.5593 170.00
72.6245 154.00
72.6897 195.00
72.7549 161.00
72.8201 172.00
72.8853 180.00
72.9505 173.00
73.0157 166.00
73.0809 194.00
73.1461 182.00
73.2113 177.00
73.2765 179.00
73.3417 167.00
73.4069 184.00
73.4721 177.00
73.5373 162.00
73.6025 185.00
73.6677 191.00
73.7329 201.00
73.7981 177.00
73.8633 172.00
73.9285 176.00
73.9937 164.00
74.0589 169.00
74.1241 159.00
74.1893 159.00
74.2545 190.00
74.3197 173.00
74.3849 191.00
74.4501 165.00
74.5153 175.00
74.5805 184.00
74.6457 184.00
74.7109 155.00
74.7761 201.00
74.8413 173.00
74.9065 172.00
74.9717 211.00
75.0369 181.00
75.1021 180.00
75.1673 182.00
75.2325 162.00
75.2977 163.00
75.3629 196.00
75.4281 198.00
75.4933 181.00
75.5585 183.00
75.6237 158.00
75.6889 184.00
75.7541 206.00
75.8193 169.00
75.8845 169.00
75.9497 174.00
76.0149 185.00
76.0801 173.00
76.1452 188.00
76.2104 203.00
76.2756 176.00
76.3409 201.00
76.406 169.00
76.4712 184.00
76.5364 194.00
76.6016 172.00
76.6668 169.00
76.732 189.00
76.7972 182.00
76.8624 191.00
76.9276 190.00
76.9928 179.00
77.058 199.00
77.1232 167.00
77.1884 203.00
77.2536 187.00
77.3188 207.00
77.384 197.00
77.4492 182.00
77.5144 216.00
77.5796 217.00
77.6448 180.00
77.71 182.00
77.7752 197.00
77.8404 219.00
77.9056 211.00
77.9708 158.00
78.036 178.00
78.1012 196.00
78.1664 189.00
78.2316 212.00
78.2968 207.00
78.362 197.00
78.4272 186.00
78.4924 183.00
78.5576 179.00
78.6228 184.00
78.688 219.00
78.7532 188.00
78.8184 205.00
78.8836 188.00
78.9488 185.00
79.014 211.00
79.0792 207.00
79.1444 203.00
79.2096 194.00
79.2748 213.00
79.34 191.00
79.4052 200.00
79.4704 211.00
79.5356 215.00
79.6008 221.00
79.666 209.00
79.7312 173.00
79.7964 206.00
79.8616 216.00
79.9268 191.00
79.992 218.00
80.0572 200.00
80.1224 239.00
80.1876 201.00
80.2528 207.00
80.318 194.00
80.3832 201.00
80.4484 188.00
80.5136 231.00
80.5788 201.00
80.644 214.00
80.7092 214.00
80.7744 193.00
80.8396 207.00
80.9048 210.00
80.9699 176.00
81.0351 219.00
81.1003 217.00
81.1655 225.00
81.2307 208.00
81.2959 219.00
81.3611 199.00
81.4263 206.00
81.4915 196.00
81.5567 204.00
81.6219 228.00
81.6871 182.00
81.7523 188.00
81.8175 205.00
81.8827 204.00
81.9479 208.00
82.0131 235.00
82.0783 204.00
82.1435 247.00
82.2087 195.00
82.2739 196.00
82.3391 194.00
82.4043 234.00
82.4695 179.00
82.5347 215.00
82.5999 219.00
82.6651 220.00
82.7303 206.00
82.7955 215.00
82.8607 193.00
82.9259 211.00
82.9911 217.00
83.0563 209.00
83.1215 208.00
83.1867 200.00
83.2519 212.00
83.3171 213.00
83.3823 207.00
83.4475 208.00
83.5127 187.00
83.5779 198.00
83.6431 230.00
83.7083 201.00
83.7735 204.00
83.8387 168.00
83.9039 221.00
83.9691 168.00
84.0343 192.00
84.0995 183.00
84.1647 200.00
84.2299 190.00
84.2951 200.00
84.3603 206.00
84.4255 206.00
84.4907 173.00
84.5559 181.00
84.6211 206.00
84.6863 219.00
84.7515 187.00
84.8167 200.00
84.8819 192.00
84.9471 194.00
85.0123 202.00
85.0775 196.00
85.1427 190.00
85.2079 198.00
85.2731 213.00
85.3383 193.00
85.4035 215.00
85.4687 193.00
85.5339 193.00
85.5991 196.00
85.6643 183.00
85.7295 192.00
85.7946 200.00
85.8598 180.00
85.925 176.00
85.9903 195.00
86.0554 199.00
86.1206 165.00
86.1858 165.00
86.251 175.00
86.3162 181.00
86.3814 180.00
86.4466 187.00
86.5118 198.00
86.577 197.00
86.6422 183.00
86.7074 190.00
86.7726 188.00
86.8378 188.00
86.903 190.00
86.9682 166.00
87.0334 164.00
87.0986 181.00
87.1638 166.00
87.229 184.00
87.2942 186.00
87.3594 171.00
87.4246 176.00
87.4898 178.00
87.555 180.00
87.6202 153.00
87.6854 200.00
87.7506 159.00
87.8158 187.00
87.881 176.00
87.9462 194.00
88.0114 158.00
88.0766 170.00
88.1418 166.00
88.207 152.00
88.2722 227.00
88.3374 184.00
88.4026 183.00
88.4678 170.00
88.533 152.00
88.5982 198.00
88.6634 180.00
88.7286 162.00
88.7938 171.00
88.859 180.00
88.9242 175.00
88.9894 193.00
89.0546 175.00
89.1198 171.00
89.185 177.00
89.2502 180.00
89.3154 196.00
89.3806 160.00
89.4458 170.00
89.511 183.00
89.5762 184.00
89.6414 179.00
89.7066 170.00
89.7718 173.00
89.837 143.00
89.9022 169.00
89.9674 173.00
90.0326 166.00
90.0978 164.00
90.163 181.00
90.2282 160.00
90.2934 185.00
90.3586 177.00
90.4238 154.00
90.489 153.00
90.5542 178.00
90.6193 161.00
90.6845 159.00
90.7497 173.00
90.8149 189.00
90.8801 164.00
90.9453 158.00
91.0105 161.00
91.0757 173.00
91.1409 172.00
91.2061 180.00
91.2713 167.00
91.3365 169.00
91.4017 187.00
91.4669 163.00
91.5321 170.00
91.5973 174.00
91.6625 170.00
91.7277 159.00
91.7929 164.00
91.8581 177.00
91.9233 163.00
91.9885 175.00
92.0537 164.00
92.1189 176.00
92.1841 166.00
92.2493 180.00
92.3145 180.00
92.3797 186.00
92.4449 153.00
92.5101 168.00
92.5753 179.00
92.6405 162.00
92.7057 156.00
92.7709 166.00
92.8361 167.00
92.9013 169.00
92.9665 170.00
93.0317 157.00
93.0969 167.00
93.1621 179.00
93.2273 153.00
93.2925 179.00
93.3577 166.00
93.4229 165.00
93.4881 145.00
93.5533 163.00
93.6185 156.00
93.6837 171.00
93.7489 168.00
93.8141 170.00
93.8793 164.00
93.9445 180.00
94.0097 185.00
94.0749 172.00
94.1401 156.00
94.2053 145.00
94.2705 158.00
94.3357 140.00
94.4009 178.00
94.4661 150.00
94.5313 160.00
94.5965 159.00
94.6617 178.00
94.7269 156.00
94.7921 170.00
94.8573 173.00
94.9225 172.00
94.9877 176.00
95.0529 168.00
95.1181 187.00
95.1833 177.00
95.2485 170.00
95.3137 177.00
95.3789 185.00
95.444 154.00
95.5092 153.00
95.5744 167.00
95.6396 169.00
95.7048 157.00
95.77 161.00
95.8352 162.00
95.9004 166.00
95.9656 165.00
96.0308 154.00
96.096 177.00
96.1612 174.00
96.2264 159.00
96.2916 162.00
96.3568 160.00
96.422 155.00
96.4872 165.00
96.5524 180.00
96.6176 166.00
96.6828 188.00
96.748 202.00
96.8132 159.00
96.8784 181.00
96.9436 136.00
97.0088 139.00
97.074 151.00
97.1392 164.00
97.2044 170.00
97.2696 125.00
97.3348 150.00
97.4 174.00
97.4652 140.00
97.5304 147.00
97.5956 159.00
97.6608 177.00
97.726 155.00
97.7912 151.00
97.8564 176.00
97.9216 145.00
97.9868 168.00
98.052 181.00
98.1172 180.00
98.1824 189.00
98.2476 163.00
98.3128 135.00
98.378 184.00
98.4432 172.00
98.5084 175.00
98.5736 176.00
98.6388 183.00
98.704 150.00
98.7692 187.00
98.8344 168.00
98.8996 165.00
98.9648 181.00
99.03 179.00
99.0952 144.00
99.1604 171.00
99.2256 147.00
99.2908 153.00
99.356 160.00
99.4212 192.00
99.4864 151.00
99.5516 143.00
99.6168 178.00
99.682 164.00
99.7472 155.00
99.8124 173.00
99.8776 184.00
99.9428 156.00
100.008 151.00
100.073 144.00
100.095 142.00