File: data/xrd_creation/results/PG_2543-1.xy
9.903433 3113.00
9.968632 3051.00
10.0338 3024.00
10.099 3109.00
10.1642 3065.00
10.2294 3073.00
10.2946 2960.00
10.3598 3041.00
10.425 3083.00
10.4902 3005.00
10.5554 2923.00
10.6206 2938.00
10.6858 2954.00
10.751 2910.00
10.8162 2860.00
10.8814 2958.00
10.9466 2915.00
11.0118 2768.00
11.077 2772.00
11.1422 2796.00
11.2074 2758.00
11.2726 2799.00
11.3378 2682.00
11.403 2673.00
11.4682 2739.00
11.5334 2729.00
11.5986 2734.00
11.6638 2686.00
11.729 2750.00
11.7942 2651.00
11.8594 2607.00
11.9246 2583.00
11.9898 2495.00
12.055 2524.00
12.1202 2516.00
12.1854 2521.00
12.2506 2525.00
12.3158 2486.00
12.381 2449.00
12.4462 2491.00
12.5114 2485.00
12.5766 2402.00
12.6418 2404.00
12.707 2499.00
12.7722 2449.00
12.8374 2412.00
12.9026 2311.00
12.9678 2453.00
13.033 2446.00
13.0982 2333.00
13.1634 2316.00
13.2286 2407.00
13.2938 2433.00
13.359 2249.00
13.4242 2282.00
13.4894 2396.00
13.5546 2356.00
13.6198 2309.00
13.685 2263.00
13.7502 2323.00
13.8154 2258.00
13.8805 2252.00
13.9457 2250.00
14.0109 2331.00
14.0761 2259.00
14.1413 2245.00
14.2065 2292.00
14.2717 2281.00
14.3369 2204.00
14.4021 2291.00
14.4673 2305.00
14.5325 2265.00
14.5977 2335.00
14.6629 2277.00
14.7281 2227.00
14.7933 2211.00
14.8585 2179.00
14.9237 2245.00
14.9889 2262.00
15.0541 2283.00
15.1193 2210.00
15.1845 2246.00
15.2497 2273.00
15.3149 2250.00
15.3801 2279.00
15.4453 2384.00
15.5105 2259.00
15.5757 2312.00
15.6409 2285.00
15.7061 2372.00
15.7713 2353.00
15.8365 2255.00
15.9017 2291.00
15.9669 2390.00
16.0321 2287.00
16.0973 2360.00
16.1625 2315.00
16.2277 2386.00
16.2929 2353.00
16.3581 2338.00
16.4233 2319.00
16.4885 2333.00
16.5537 2422.00
16.6189 2381.00
16.6841 2361.00
16.7493 2485.00
16.8145 2369.00
16.8797 2404.00
16.9449 2413.00
17.0101 2330.00
17.0753 2363.00
17.1405 2451.00
17.2057 2368.00
17.2709 2459.00
17.3361 2410.00
17.4013 2509.00
17.4665 2515.00
17.5317 2460.00
17.5969 2509.00
17.6621 2554.00
17.7273 2459.00
17.7925 2480.00
17.8577 2486.00
17.9229 2571.00
17.9881 2458.00
18.0533 2587.00
18.1185 2593.00
18.1837 2536.00
18.2489 2568.00
18.3141 2645.00
18.3793 2630.00
18.4445 2676.00
18.5097 2665.00
18.5749 2704.00
18.6401 2584.00
18.7052 2640.00
18.7704 2641.00
18.8356 2627.00
18.9008 2774.00
18.966 2720.00
19.0312 2823.00
19.0964 2672.00
19.1616 2910.00
19.2268 2731.00
19.292 2926.00
19.3572 2866.00
19.4224 2862.00
19.4876 2887.00
19.5528 2825.00
19.618 2946.00
19.6832 3006.00
19.7484 2894.00
19.8136 2898.00
19.8788 2943.00
19.944 3039.00
20.0092 2968.00
20.0744 3060.00
20.1396 3030.00
20.2048 3157.00
20.27 3081.00
20.3352 3176.00
20.4004 3214.00
20.4656 3013.00
20.5308 3166.00
20.596 3176.00
20.6612 3206.00
20.7264 3093.00
20.7916 3147.00
20.8568 3250.00
20.922 3183.00
20.9872 3251.00
21.0524 3208.00
21.1176 3259.00
21.1828 3225.00
21.248 3282.00
21.3132 3257.00
21.3784 3166.00
21.4436 3257.00
21.5088 3203.00
21.574 3194.00
21.6392 3133.00
21.7044 3202.00
21.7696 3255.00
21.8348 3159.00
21.9 3178.00
21.9652 3203.00
22.0304 3226.00
22.0956 3108.00
22.1608 3293.00
22.226 3235.00
22.2912 3180.00
22.3564 3197.00
22.4216 3140.00
22.4868 3195.00
22.552 3046.00
22.6172 3062.00
22.6824 3090.00
22.7476 3137.00
22.8128 3048.00
22.878 3098.00
22.9432 3072.00
23.0084 3108.00
23.0736 3137.00
23.1388 3192.00
23.204 3204.00
23.2692 3124.00
23.3344 3016.00
23.3996 2974.00
23.4647 2975.00
23.5299 2876.00
23.5951 2827.00
23.6603 2880.00
23.7255 2807.00
23.7907 2901.00
23.8559 2810.00
23.9211 2718.00
23.9863 2777.00
24.0515 2767.00
24.1167 2726.00
24.1819 2749.00
24.2471 2676.00
24.3123 2734.00
24.3775 2610.00
24.4427 2579.00
24.5079 2534.00
24.5731 2620.00
24.6383 2552.00
24.7035 2443.00
24.7687 2513.00
24.8339 2499.00
24.8991 2318.00
24.9643 2399.00
25.0295 2395.00
25.0947 2361.00
25.1599 2271.00
25.2251 2324.00
25.2903 2332.00
25.3555 2328.00
25.4207 2428.00
25.4859 2261.00
25.5511 2285.00
25.6163 2326.00
25.6815 2269.00
25.7467 2317.00
25.8119 2328.00
25.8771 2244.00
25.9423 2256.00
26.0075 2216.00
26.0727 2175.00
26.1379 2068.00
26.2031 2111.00
26.2683 2122.00
26.3335 2024.00
26.3987 2083.00
26.4639 2012.00
26.5291 1986.00
26.5943 1973.00
26.6595 2044.00
26.7247 1960.00
26.7899 2020.00
26.8551 1909.00
26.9203 1857.00
26.9855 1924.00
27.0507 1931.00
27.1159 1912.00
27.1811 1838.00
27.2463 1801.00
27.3115 1857.00
27.3767 1880.00
27.4419 1889.00
27.5071 1805.00
27.5723 1837.00
27.6375 1873.00
27.7027 1787.00
27.7679 1833.00
27.8331 1796.00
27.8983 1702.00
27.9635 1761.00
28.0287 1775.00
28.0939 1656.00
28.1591 1853.00
28.2243 1715.00
28.2894 1702.00
28.3546 1731.00
28.4198 1666.00
28.485 1628.00
28.5502 1696.00
28.6154 1669.00
28.6806 1668.00
28.7458 1590.00
28.811 1681.00
28.8762 1666.00
28.9414 1639.00
29.0066 1605.00
29.0718 1550.00
29.137 1626.00
29.2022 1556.00
29.2674 1598.00
29.3326 1605.00
29.3978 1588.00
29.463 1526.00
29.5282 1605.00
29.5934 1501.00
29.6586 1593.00
29.7238 1661.00
29.789 1574.00
29.8542 1532.00
29.9194 1488.00
29.9846 1562.00
30.0498 1616.00
30.115 1485.00
30.1802 1593.00
30.2454 1551.00
30.3106 1447.00
30.3758 1488.00
30.441 1463.00
30.5062 1499.00
30.5714 1373.00
30.6366 1475.00
30.7018 1405.00
30.767 1404.00
30.8322 1341.00
30.8974 1463.00
30.9626 1367.00
31.0278 1315.00
31.093 1416.00
31.1582 1448.00
31.2234 1409.00
31.2886 1430.00
31.3538 1379.00
31.419 1371.00
31.4842 1324.00
31.5494 1325.00
31.6146 1427.00
31.6798 1362.00
31.745 1298.00
31.8102 1237.00
31.8754 1205.00
31.9406 1255.00
32.0058 1245.00
32.071 1338.00
32.1362 1338.00
32.2014 1220.00
32.2666 1262.00
32.3318 1362.00
32.397 1356.00
32.4622 1386.00
32.5274 1394.00
32.5926 1446.00
32.6578 1365.00
32.723 1343.00
32.7882 1294.00
32.8534 1357.00
32.9186 1283.00
32.9838 1182.00
33.0489 1253.00
33.1141 1201.00
33.1793 1222.00
33.2445 1238.00
33.3097 1179.00
33.3749 1204.00
33.4401 1173.00
33.5053 1224.00
33.5705 1171.00
33.6357 1216.00
33.7009 1178.00
33.7661 1147.00
33.8313 1192.00
33.8965 1185.00
33.9617 1147.00
34.0269 1113.00
34.0921 1150.00
34.1573 1116.00
34.2225 1224.00
34.2877 1072.00
34.3529 1144.00
34.4181 1152.00
34.4833 1140.00
34.5485 1130.00
34.6137 1170.00
34.6789 1130.00
34.7441 1089.00
34.8093 1092.00
34.8745 1096.00
34.9397 1099.00
35.0049 1156.00
35.0701 1097.00
35.1353 1109.00
35.2005 1083.00
35.2657 1124.00
35.3309 1077.00
35.3961 1118.00
35.4613 1177.00
35.5265 1129.00
35.5917 1143.00
35.6569 1093.00
35.7221 1196.00
35.7873 1233.00
35.8525 1221.00
35.9177 1309.00
35.9829 1344.00
36.0481 1333.00
36.1133 1183.00
36.1785 1219.00
36.2437 1139.00
36.3089 1151.00
36.3741 1102.00
36.4393 1053.00
36.5045 1201.00
36.5697 1161.00
36.6349 1209.00
36.7001 1342.00
36.7653 1394.00
36.8305 1379.00
36.8957 1452.00
36.9609 1600.00
37.0261 1740.00
37.0913 2246.00
37.1565 3181.00
37.2217 3739.00
37.2869 2642.00
37.3521 1801.00
37.4173 1185.00
37.4825 1154.00
37.5477 1072.00
37.6129 1047.00
37.6781 968.00
37.7433 993.00
37.8085 1027.00
37.8736 937.00
37.9388 966.00
38.004 957.00
38.0692 890.00
38.1344 980.00
38.1996 954.00
38.2648 926.00
38.33 964.00
38.3952 934.00
38.4604 1004.00
38.5256 1048.00
38.5908 1010.00
38.656 1004.00
38.7212 1032.00
38.7864 1014.00
38.8516 981.00
38.9168 962.00
38.982 920.00
39.0472 943.00
39.1124 878.00
39.1776 910.00
39.2428 855.00
39.308 914.00
39.3732 951.00
39.4384 925.00
39.5036 918.00
39.5688 880.00
39.634 917.00
39.6992 926.00
39.7644 987.00
39.8296 1005.00
39.8948 1018.00
39.96 1000.00
40.0252 1002.00
40.0904 981.00
40.1556 1006.00
40.2208 924.00
40.286 959.00
40.3512 965.00
40.4164 970.00
40.4816 914.00
40.5468 888.00
40.612 901.00
40.6772 860.00
40.7424 863.00
40.8076 837.00
40.8728 840.00
40.938 821.00
41.0032 794.00
41.0684 868.00
41.1336 795.00
41.1988 858.00
41.264 868.00
41.3292 846.00
41.3944 890.00
41.4596 794.00
41.5248 836.00
41.59 898.00
41.6552 925.00
41.7204 950.00
41.7856 968.00
41.8508 920.00
41.916 913.00
41.9812 999.00
42.0464 1012.00
42.1116 973.00
42.1768 996.00
42.242 1046.00
42.3072 962.00
42.3724 1064.00
42.4376 1066.00
42.5028 1111.00
42.568 1236.00
42.6332 1357.00
42.6983 1549.00
42.7635 1922.00
42.8287 2634.00
42.8939 3965.00
42.9591 6368.00
43.0243 10719.00
43.0895 18453.00
43.1547 27809.00
43.2199 26431.00
43.2851 16724.00
43.3503 8589.00
43.4155 3091.00
43.4807 1972.00
43.5459 1540.00
43.6111 1346.00
43.6763 1250.00
43.7415 1076.00
43.8067 1037.00
43.8719 1051.00
43.9371 960.00
44.0023 915.00
44.0675 917.00
44.1327 892.00
44.1979 936.00
44.2631 824.00
44.3283 887.00
44.3935 926.00
44.4587 859.00
44.5239 878.00
44.5891 873.00
44.6543 851.00
44.7195 836.00
44.7847 870.00
44.8499 854.00
44.9151 810.00
44.9803 819.00
45.0455 833.00
45.1107 871.00
45.1759 858.00
45.2411 834.00
45.3063 834.00
45.3715 784.00
45.4367 795.00
45.5019 802.00
45.5671 833.00
45.6323 805.00
45.6975 833.00
45.7627 811.00
45.8279 879.00
45.8931 813.00
45.9583 812.00
46.0235 772.00
46.0887 803.00
46.1539 772.00
46.2191 762.00
46.2843 788.00
46.3495 792.00
46.4147 750.00
46.4799 796.00
46.5451 772.00
46.6103 794.00
46.6755 794.00
46.7407 796.00
46.8059 816.00
46.8711 729.00
46.9363 755.00
47.0015 774.00
47.0667 875.00
47.1319 824.00
47.1971 756.00
47.2623 820.00
47.3275 743.00
47.3927 755.00
47.4579 747.00
47.523 758.00
47.5882 776.00
47.6534 748.00
47.7186 767.00
47.7838 730.00
47.849 724.00
47.9142 707.00
47.9794 718.00
48.0446 755.00
48.1098 721.00
48.175 752.00
48.2402 737.00
48.3054 702.00
48.3706 702.00
48.4358 697.00
48.501 690.00
48.5662 751.00
48.6314 764.00
48.6966 731.00
48.7618 725.00
48.827 694.00
48.8922 736.00
48.9574 703.00
49.0226 735.00
49.0878 686.00
49.153 689.00
49.2182 673.00
49.2834 761.00
49.3486 666.00
49.4138 656.00
49.479 698.00
49.5442 768.00
49.6094 713.00
49.6746 717.00
49.7398 689.00
49.805 691.00
49.8702 678.00
49.9354 681.00
50.0006 748.00
50.0658 702.00
50.131 630.00
50.1962 722.00
50.2614 700.00
50.3266 712.00
50.3918 678.00
50.457 693.00
50.5222 666.00
50.5874 723.00
50.6526 685.00
50.7178 639.00
50.783 646.00
50.8482 693.00
50.9134 678.00
50.9786 733.00
51.0438 726.00
51.109 687.00
51.1742 670.00
51.2394 668.00
51.3046 720.00
51.3698 646.00
51.435 739.00
51.5002 676.00
51.5654 709.00
51.6306 654.00
51.6958 674.00
51.761 686.00
51.8262 660.00
51.8914 632.00
51.9566 654.00
52.0218 651.00
52.087 681.00
52.1522 684.00
52.2174 740.00
52.2826 767.00
52.3477 820.00
52.4129 788.00
52.4781 801.00
52.5433 917.00
52.6085 781.00
52.6737 839.00
52.7389 782.00
52.8041 726.00
52.8693 786.00
52.9345 766.00
52.9997 702.00
53.0649 699.00
53.1301 698.00
53.1953 728.00
53.2605 675.00
53.3257 669.00
53.3909 658.00
53.4561 591.00
53.5213 681.00
53.5865 620.00
53.6517 699.00
53.7169 618.00
53.7821 655.00
53.8473 617.00
53.9125 717.00
53.9777 632.00
54.0429 649.00
54.1081 687.00
54.1733 629.00
54.2385 667.00
54.3037 661.00
54.3689 638.00
54.4341 629.00
54.4993 638.00
54.5645 638.00
54.6297 598.00
54.6949 613.00
54.7601 630.00
54.8253 623.00
54.8905 654.00
54.9557 632.00
55.0209 638.00
55.0861 640.00
55.1513 594.00
55.2165 689.00
55.2817 668.00
55.3469 673.00
55.4121 625.00
55.4773 641.00
55.5425 614.00
55.6077 636.00
55.6729 682.00
55.7381 650.00
55.8033 640.00
55.8685 636.00
55.9337 707.00
55.9989 677.00
56.0641 624.00
56.1293 620.00
56.1945 677.00
56.2597 669.00
56.3249 648.00
56.3901 730.00
56.4553 662.00
56.5205 695.00
56.5857 675.00
56.6509 618.00
56.7161 623.00
56.7813 652.00
56.8465 659.00
56.9117 652.00
56.9769 694.00
57.042 664.00
57.1073 641.00
57.1724 724.00
57.2376 688.00
57.3028 658.00
57.368 657.00
57.4332 652.00
57.4984 627.00
57.5636 683.00
57.6288 620.00
57.694 628.00
57.7592 643.00
57.8244 635.00
57.8896 584.00
57.9548 633.00
58.02 626.00
58.0852 578.00
58.1504 601.00
58.2156 613.00
58.2808 603.00
58.346 645.00
58.4112 624.00
58.4764 662.00
58.5416 604.00
58.6068 632.00
58.672 608.00
58.7372 616.00
58.8024 671.00
58.8676 637.00
58.9328 598.00
58.998 632.00
59.0632 636.00
59.1284 671.00
59.1936 645.00
59.2588 659.00
59.324 641.00
59.3892 612.00
59.4544 621.00
59.5196 588.00
59.5848 595.00
59.65 576.00
59.7152 611.00
59.7804 578.00
59.8456 601.00
59.9108 590.00
59.976 671.00
60.0412 660.00
60.1064 661.00
60.1716 638.00
60.2368 663.00
60.302 684.00
60.3672 632.00
60.4324 708.00
60.4976 650.00
60.5628 645.00
60.628 645.00
60.6932 686.00
60.7584 675.00
60.8236 623.00
60.8888 646.00
60.954 662.00
61.0192 696.00
61.0844 700.00
61.1496 643.00
61.2148 682.00
61.28 694.00
61.3452 720.00
61.4104 732.00
61.4756 733.00
61.5408 709.00
61.606 707.00
61.6712 713.00
61.7364 796.00
61.8016 745.00
61.8667 813.00
61.932 880.00
61.9971 972.00
62.0623 1116.00
62.1275 1432.00
62.1927 1812.00
62.2579 2728.00
62.3231 3890.00
62.3883 5891.00
62.4535 8737.00
62.5187 12324.00
62.5839 11556.00
62.6491 7195.00
62.7143 6726.00
62.7795 4135.00
62.8447 1950.00
62.9099 1245.00
62.9751 1017.00
63.0403 971.00
63.1055 823.00
63.1707 822.00
63.2359 796.00
63.3011 757.00
63.3663 766.00
63.4315 720.00
63.4967 736.00
63.5619 679.00
63.6271 667.00
63.6923 687.00
63.7575 650.00
63.8227 674.00
63.8879 735.00
63.9531 639.00
64.0183 641.00
64.0835 609.00
64.1487 664.00
64.2139 684.00
64.2791 661.00
64.3443 642.00
64.4095 681.00
64.4747 681.00
64.5399 685.00
64.6051 614.00
64.6703 619.00
64.7355 582.00
64.8007 613.00
64.8659 568.00
64.9311 638.00
64.9963 698.00
65.0615 675.00
65.1267 607.00
65.1919 612.00
65.2571 638.00
65.3223 591.00
65.3875 612.00
65.4527 614.00
65.5179 613.00
65.5831 600.00
65.6483 607.00
65.7135 581.00
65.7787 611.00
65.8439 627.00
65.9091 591.00
65.9743 624.00
66.0395 620.00
66.1047 620.00
66.1699 616.00
66.2351 642.00
66.3003 632.00
66.3655 615.00
66.4307 605.00
66.4959 580.00
66.561 591.00
66.6263 571.00
66.6915 587.00
66.7566 617.00
66.8218 571.00
66.887 615.00
66.9522 626.00
67.0174 630.00
67.0826 646.00
67.1478 656.00
67.213 597.00
67.2782 632.00
67.3434 624.00
67.4086 630.00
67.4738 621.00
67.539 632.00
67.6042 634.00
67.6694 627.00
67.7346 627.00
67.7998 636.00
67.865 588.00
67.9302 575.00
67.9954 630.00
68.0606 597.00
68.1258 646.00
68.191 608.00
68.2562 567.00
68.3214 613.00
68.3866 574.00
68.4518 579.00
68.517 571.00
68.5822 562.00
68.6474 626.00
68.7126 592.00
68.7778 616.00
68.843 636.00
68.9082 613.00
68.9734 605.00
69.0386 590.00
69.1038 591.00
69.169 590.00
69.2342 558.00
69.2994 535.00
69.3646 590.00
69.4298 599.00
69.495 584.00
69.5602 603.00
69.6254 601.00
69.6906 605.00
69.7558 617.00
69.821 616.00
69.8862 655.00
69.9514 648.00
70.0166 612.00
70.0818 613.00
70.147 597.00
70.2122 614.00
70.2774 575.00
70.3426 569.00
70.4078 512.00
70.473 554.00
70.5382 573.00
70.6034 592.00
70.6686 574.00
70.7338 582.00
70.799 567.00
70.8642 558.00
70.9294 552.00
70.9946 529.00
71.0598 515.00
71.125 584.00
71.1902 567.00
71.2554 577.00
71.3205 577.00
71.3858 548.00
71.451 509.00
71.5162 556.00
71.5813 551.00
71.6465 589.00
71.7117 573.00
71.7769 530.00
71.8421 549.00
71.9073 626.00
71.9725 564.00
72.0377 601.00
72.1029 566.00
72.1681 559.00
72.2333 565.00
72.2985 574.00
72.3637 575.00
72.4289 532.00
72.4941 576.00
72.5593 584.00
72.6245 537.00
72.6897 533.00
72.7549 530.00
72.8201 571.00
72.8853 526.00
72.9505 576.00
73.0157 570.00
73.0809 566.00
73.1461 565.00
73.2113 555.00
73.2765 544.00
73.3417 565.00
73.4069 594.00
73.4721 531.00
73.5373 518.00
73.6025 584.00
73.6677 503.00
73.7329 583.00
73.7981 561.00
73.8633 573.00
73.9285 526.00
73.9937 527.00
74.0589 561.00
74.1241 568.00
74.1893 548.00
74.2545 562.00
74.3197 551.00
74.3849 556.00
74.4501 588.00
74.5153 665.00
74.5805 703.00
74.6457 850.00
74.7109 1034.00
74.7761 1325.00
74.8413 1713.00
74.9065 1889.00
74.9717 1501.00
75.0369 1209.00
75.1021 1240.00
75.1673 1092.00
75.2325 794.00
75.2977 618.00
75.3629 597.00
75.4281 618.00
75.4933 561.00
75.5585 557.00
75.6237 585.00
75.6889 543.00
75.7541 504.00
75.8193 542.00
75.8845 545.00
75.9497 556.00
76.0149 537.00
76.0801 530.00
76.1452 546.00
76.2104 594.00
76.2756 587.00
76.3409 570.00
76.406 558.00
76.4712 561.00
76.5364 596.00
76.6016 548.00
76.6668 540.00
76.732 570.00
76.7972 577.00
76.8624 557.00
76.9276 531.00
76.9928 557.00
77.058 569.00
77.1232 549.00
77.1884 572.00
77.2536 536.00
77.3188 577.00
77.384 553.00
77.4492 514.00
77.5144 550.00
77.5796 554.00
77.6448 559.00
77.71 524.00
77.7752 542.00
77.8404 553.00
77.9056 546.00
77.9708 564.00
78.036 520.00
78.1012 594.00
78.1664 595.00
78.2316 619.00
78.2968 643.00
78.362 672.00
78.4272 701.00
78.4924 869.00
78.5576 1092.00
78.6228 1459.00
78.688 1960.00
78.7532 2720.00
78.8184 3401.00
78.8836 3276.00
78.9488 2075.00
79.014 1940.00
79.0792 2043.00
79.1444 1400.00
79.2096 842.00
79.2748 644.00
79.34 623.00
79.4052 605.00
79.4704 569.00
79.5356 545.00
79.6008 514.00
79.666 555.00
79.7312 527.00
79.7964 505.00
79.8616 533.00
79.9268 545.00
79.992 537.00
80.0572 502.00
80.1224 496.00
80.1876 525.00
80.2528 499.00
80.318 500.00
80.3832 553.00
80.4484 508.00
80.5136 471.00
80.5788 513.00
80.644 472.00
80.7092 484.00
80.7744 537.00
80.8396 517.00
80.9048 500.00
80.9699 483.00
81.0351 472.00
81.1003 507.00
81.1655 503.00
81.2307 485.00
81.2959 505.00
81.3611 517.00
81.4263 471.00
81.4915 481.00
81.5567 481.00
81.6219 499.00
81.6871 479.00
81.7523 437.00
81.8175 478.00
81.8827 488.00
81.9479 482.00
82.0131 458.00
82.0783 479.00
82.1435 473.00
82.2087 461.00
82.2739 496.00
82.3391 496.00
82.4043 470.00
82.4695 481.00
82.5347 423.00
82.5999 485.00
82.6651 443.00
82.7303 479.00
82.7955 498.00
82.8607 453.00
82.9259 481.00
82.9911 430.00
83.0563 424.00
83.1215 449.00
83.1867 455.00
83.2519 421.00
83.3171 478.00
83.3823 480.00
83.4475 447.00
83.5127 469.00
83.5779 463.00
83.6431 461.00
83.7083 446.00
83.7735 444.00
83.8387 427.00
83.9039 416.00
83.9691 447.00
84.0343 449.00
84.0995 436.00
84.1647 486.00
84.2299 422.00
84.2951 422.00
84.3603 417.00
84.4255 419.00
84.4907 421.00
84.5559 440.00
84.6211 423.00
84.6863 426.00
84.7515 405.00
84.8167 412.00
84.8819 402.00
84.9471 417.00
85.0123 387.00
85.0775 392.00
85.1427 425.00
85.2079 399.00
85.2731 398.00
85.3383 394.00
85.4035 407.00
85.4687 389.00
85.5339 387.00
85.5991 440.00
85.6643 392.00
85.7295 437.00
85.7946 375.00
85.8598 409.00
85.925 373.00
85.9903 421.00
86.0554 378.00
86.1206 399.00
86.1858 381.00
86.251 356.00
86.3162 390.00
86.3814 416.00
86.4466 366.00
86.5118 401.00
86.577 384.00
86.6422 381.00
86.7074 363.00
86.7726 426.00
86.8378 378.00
86.903 360.00
86.9682 406.00
87.0334 371.00
87.0986 357.00
87.1638 375.00
87.229 403.00
87.2942 366.00
87.3594 410.00
87.4246 356.00
87.4898 371.00
87.555 359.00
87.6202 400.00
87.6854 351.00
87.7506 404.00
87.8158 319.00
87.881 350.00
87.9462 342.00
88.0114 356.00
88.0766 404.00
88.1418 361.00
88.207 354.00
88.2722 378.00
88.3374 335.00
88.4026 350.00
88.4678 341.00
88.533 360.00
88.5982 386.00
88.6634 336.00
88.7286 365.00
88.7938 364.00
88.859 335.00
88.9242 361.00
88.9894 384.00
89.0546 362.00
89.1198 373.00
89.185 329.00
89.2502 364.00
89.3154 367.00
89.3806 382.00
89.4458 350.00
89.511 372.00
89.5762 390.00
89.6414 353.00
89.7066 376.00
89.7718 346.00
89.837 363.00
89.9022 353.00
89.9674 352.00
90.0326 362.00
90.0978 340.00
90.163 382.00
90.2282 378.00
90.2934 331.00
90.3586 396.00
90.4238 349.00
90.489 332.00
90.5542 329.00
90.6193 344.00
90.6845 345.00
90.7497 377.00
90.8149 370.00
90.8801 379.00
90.9453 329.00
91.0105 339.00
91.0757 351.00
91.1409 348.00
91.2061 354.00
91.2713 371.00
91.3365 369.00
91.4017 333.00
91.4669 339.00
91.5321 360.00
91.5973 359.00
91.6625 400.00
91.7277 311.00
91.7929 347.00
91.8581 344.00
91.9233 360.00
91.9885 332.00
92.0537 348.00
92.1189 325.00
92.1841 330.00
92.2493 337.00
92.3145 348.00
92.3797 326.00
92.4449 329.00
92.5101 396.00
92.5753 364.00
92.6405 326.00
92.7057 372.00
92.7709 361.00
92.8361 338.00
92.9013 417.00
92.9665 332.00
93.0317 314.00
93.0969 357.00
93.1621 342.00
93.2273 333.00
93.2925 354.00
93.3577 340.00
93.4229 353.00
93.4881 361.00
93.5533 412.00
93.6185 359.00
93.6837 377.00
93.7489 409.00
93.8141 426.00
93.8793 486.00
93.9445 589.00
94.0097 745.00
94.0749 934.00
94.1401 1177.00
94.2053 1402.00
94.2705 1250.00
94.3357 987.00
94.4009 865.00
94.4661 889.00
94.5313 880.00
94.5965 728.00
94.6617 515.00
94.7269 414.00
94.7921 393.00
94.8573 383.00
94.9225 378.00
94.9877 364.00
95.0529 395.00
95.1181 357.00
95.1833 346.00
95.2485 336.00
95.3137 367.00
95.3789 336.00
95.444 342.00
95.5092 385.00
95.5744 407.00
95.6396 337.00
95.7048 371.00
95.77 338.00
95.8352 330.00
95.9004 351.00
95.9656 391.00
96.0308 361.00
96.096 331.00
96.1612 350.00
96.2264 351.00
96.2916 378.00
96.3568 340.00
96.422 371.00
96.4872 355.00
96.5524 324.00
96.6176 352.00
96.6828 322.00
96.748 374.00
96.8132 341.00
96.8784 334.00
96.9436 362.00
97.0088 359.00
97.074 368.00
97.1392 338.00
97.2044 301.00
97.2696 303.00
97.3348 340.00
97.4 330.00
97.4652 309.00
97.5304 373.00
97.5956 320.00
97.6608 341.00
97.726 359.00
97.7912 371.00
97.8564 344.00
97.9216 349.00
97.9868 364.00
98.052 326.00
98.1172 349.00
98.1824 336.00
98.2476 377.00
98.3128 327.00
98.378 351.00
98.4432 384.00
98.5084 354.00
98.5736 375.00
98.6388 305.00
98.704 364.00
98.7692 330.00
98.8344 319.00
98.8996 346.00
98.9648 342.00
99.03 319.00
99.0952 357.00
99.1604 352.00
99.2256 358.00
99.2908 327.00
99.356 345.00
99.4212 328.00
99.4864 370.00
99.5516 384.00
99.6168 349.00
99.682 358.00
99.7472 354.00
99.8124 354.00
99.8776 361.00
99.9428 352.00
100.008 343.00
100.073 310.00
100.095 334.00