File: data/xrd_creation/results/PG_2441-1.xy
9.903433 2604.00
9.968632 2433.00
10.0338 2422.00
10.099 2547.00
10.1642 2500.00
10.2294 2453.00
10.2946 2305.00
10.3598 2276.00
10.425 2345.00
10.4902 2300.00
10.5554 2343.00
10.6206 2217.00
10.6858 2163.00
10.751 2213.00
10.8162 2132.00
10.8814 2175.00
10.9466 2096.00
11.0118 2067.00
11.077 2152.00
11.1422 2076.00
11.2074 2077.00
11.2726 2089.00
11.3378 1976.00
11.403 1947.00
11.4682 1932.00
11.5334 1971.00
11.5986 1921.00
11.6638 1899.00
11.729 1897.00
11.7942 1882.00
11.8594 1791.00
11.9246 1798.00
11.9898 1810.00
12.055 1745.00
12.1202 1786.00
12.1854 1829.00
12.2506 1672.00
12.3158 1783.00
12.381 1676.00
12.4462 1587.00
12.5114 1719.00
12.5766 1693.00
12.6418 1719.00
12.707 1619.00
12.7722 1622.00
12.8374 1590.00
12.9026 1635.00
12.9678 1609.00
13.033 1656.00
13.0982 1616.00
13.1634 1547.00
13.2286 1598.00
13.2938 1569.00
13.359 1543.00
13.4242 1572.00
13.4894 1598.00
13.5546 1802.00
13.6198 1832.00
13.685 1710.00
13.7502 1528.00
13.8154 1454.00
13.8805 1407.00
13.9457 1414.00
14.0109 1383.00
14.0761 1406.00
14.1413 1405.00
14.2065 1375.00
14.2717 1307.00
14.3369 1400.00
14.4021 1366.00
14.4673 1294.00
14.5325 1344.00
14.5977 1331.00
14.6629 1264.00
14.7281 1372.00
14.7933 1349.00
14.8585 1325.00
14.9237 1310.00
14.9889 1225.00
15.0541 1251.00
15.1193 1306.00
15.1845 1235.00
15.2497 1211.00
15.3149 1238.00
15.3801 1183.00
15.4453 1273.00
15.5105 1225.00
15.5757 1247.00
15.6409 1272.00
15.7061 1230.00
15.7713 1221.00
15.8365 1239.00
15.9017 1256.00
15.9669 1230.00
16.0321 1171.00
16.0973 1217.00
16.1625 1196.00
16.2277 1159.00
16.2929 1178.00
16.3581 1166.00
16.4233 1173.00
16.4885 1165.00
16.5537 1142.00
16.6189 1239.00
16.6841 1196.00
16.7493 1127.00
16.8145 1138.00
16.8797 1155.00
16.9449 1156.00
17.0101 1133.00
17.0753 1117.00
17.1405 1093.00
17.2057 1056.00
17.2709 1060.00
17.3361 1030.00
17.4013 1086.00
17.4665 1031.00
17.5317 1045.00
17.5969 1032.00
17.6621 1012.00
17.7273 1107.00
17.7925 1052.00
17.8577 1025.00
17.9229 1001.00
17.9881 1058.00
18.0533 1008.00
18.1185 1039.00
18.1837 1001.00
18.2489 1045.00
18.3141 968.00
18.3793 980.00
18.4445 986.00
18.5097 1002.00
18.5749 993.00
18.6401 958.00
18.7052 980.00
18.7704 949.00
18.8356 941.00
18.9008 979.00
18.966 911.00
19.0312 897.00
19.0964 956.00
19.1616 940.00
19.2268 922.00
19.292 904.00
19.3572 959.00
19.4224 952.00
19.4876 952.00
19.5528 961.00
19.618 884.00
19.6832 951.00
19.7484 955.00
19.8136 904.00
19.8788 829.00
19.944 922.00
20.0092 864.00
20.0744 865.00
20.1396 837.00
20.2048 884.00
20.27 882.00
20.3352 899.00
20.4004 819.00
20.4656 871.00
20.5308 858.00
20.596 814.00
20.6612 842.00
20.7264 789.00
20.7916 817.00
20.8568 856.00
20.922 819.00
20.9872 822.00
21.0524 837.00
21.1176 765.00
21.1828 847.00
21.248 841.00
21.3132 796.00
21.3784 817.00
21.4436 808.00
21.5088 834.00
21.574 812.00
21.6392 734.00
21.7044 756.00
21.7696 781.00
21.8348 844.00
21.9 794.00
21.9652 757.00
22.0304 735.00
22.0956 800.00
22.1608 746.00
22.226 782.00
22.2912 769.00
22.3564 768.00
22.4216 720.00
22.4868 718.00
22.552 704.00
22.6172 819.00
22.6824 777.00
22.7476 702.00
22.8128 761.00
22.878 731.00
22.9432 719.00
23.0084 723.00
23.0736 697.00
23.1388 777.00
23.204 716.00
23.2692 675.00
23.3344 718.00
23.3996 712.00
23.4647 672.00
23.5299 691.00
23.5951 728.00
23.6603 695.00
23.7255 726.00
23.7907 693.00
23.8559 705.00
23.9211 684.00
23.9863 731.00
24.0515 696.00
24.1167 733.00
24.1819 647.00
24.2471 666.00
24.3123 674.00
24.3775 664.00
24.4427 592.00
24.5079 655.00
24.5731 695.00
24.6383 654.00
24.7035 596.00
24.7687 676.00
24.8339 642.00
24.8991 672.00
24.9643 629.00
25.0295 665.00
25.0947 652.00
25.1599 659.00
25.2251 658.00
25.2903 612.00
25.3555 657.00
25.4207 625.00
25.4859 663.00
25.5511 643.00
25.6163 655.00
25.6815 653.00
25.7467 621.00
25.8119 612.00
25.8771 621.00
25.9423 574.00
26.0075 626.00
26.0727 594.00
26.1379 615.00
26.2031 607.00
26.2683 630.00
26.3335 590.00
26.3987 604.00
26.4639 643.00
26.5291 638.00
26.5943 628.00
26.6595 612.00
26.7247 637.00
26.7899 617.00
26.8551 579.00
26.9203 612.00
26.9855 624.00
27.0507 640.00
27.1159 599.00
27.1811 607.00
27.2463 656.00
27.3115 676.00
27.3767 796.00
27.4419 1122.00
27.5071 1899.00
27.5723 2795.00
27.6375 1761.00
27.7027 882.00
27.7679 644.00
27.8331 662.00
27.8983 609.00
27.9635 577.00
28.0287 589.00
28.0939 567.00
28.1591 617.00
28.2243 595.00
28.2894 629.00
28.3546 586.00
28.4198 596.00
28.485 589.00
28.5502 562.00
28.6154 532.00
28.6806 579.00
28.7458 541.00
28.811 576.00
28.8762 539.00
28.9414 550.00
29.0066 527.00
29.0718 519.00
29.137 495.00
29.2022 542.00
29.2674 556.00
29.3326 521.00
29.3978 535.00
29.463 595.00
29.5282 529.00
29.5934 518.00
29.6586 535.00
29.7238 526.00
29.789 534.00
29.8542 519.00
29.9194 496.00
29.9846 520.00
30.0498 486.00
30.115 511.00
30.1802 555.00
30.2454 477.00
30.3106 472.00
30.3758 519.00
30.441 472.00
30.5062 531.00
30.5714 516.00
30.6366 478.00
30.7018 491.00
30.767 509.00
30.8322 503.00
30.8974 506.00
30.9626 490.00
31.0278 493.00
31.093 482.00
31.1582 519.00
31.2234 494.00
31.2886 490.00
31.3538 487.00
31.419 507.00
31.4842 485.00
31.5494 448.00
31.6146 514.00
31.6798 496.00
31.745 492.00
31.8102 610.00
31.8754 736.00
31.9406 1017.00
32.0058 913.00
32.071 749.00
32.1362 542.00
32.2014 521.00
32.2666 465.00
32.3318 476.00
32.397 430.00
32.4622 452.00
32.5274 430.00
32.5926 494.00
32.6578 465.00
32.723 451.00
32.7882 443.00
32.8534 462.00
32.9186 470.00
32.9838 419.00
33.0489 419.00
33.1141 478.00
33.1793 426.00
33.2445 433.00
33.3097 433.00
33.3749 440.00
33.4401 452.00
33.5053 406.00
33.5705 421.00
33.6357 422.00
33.7009 433.00
33.7661 427.00
33.8313 435.00
33.8965 384.00
33.9617 389.00
34.0269 435.00
34.0921 403.00
34.1573 419.00
34.2225 409.00
34.2877 404.00
34.3529 385.00
34.4181 425.00
34.4833 397.00
34.5485 406.00
34.6137 406.00
34.6789 407.00
34.7441 398.00
34.8093 447.00
34.8745 486.00
34.9397 537.00
35.0049 457.00
35.0701 451.00
35.1353 406.00
35.2005 381.00
35.2657 412.00
35.3309 418.00
35.3961 391.00
35.4613 358.00
35.5265 383.00
35.5917 354.00
35.6569 396.00
35.7221 383.00
35.7873 389.00
35.8525 387.00
35.9177 384.00
35.9829 359.00
36.0481 380.00
36.1133 374.00
36.1785 362.00
36.2437 365.00
36.3089 386.00
36.3741 386.00
36.4393 382.00
36.5045 374.00
36.5697 342.00
36.6349 379.00
36.7001 352.00
36.7653 380.00
36.8305 354.00
36.8957 374.00
36.9609 376.00
37.0261 345.00
37.0913 349.00
37.1565 353.00
37.2217 342.00
37.2869 372.00
37.3521 377.00
37.4173 368.00
37.4825 347.00
37.5477 356.00
37.6129 353.00
37.6781 380.00
37.7433 349.00
37.8085 358.00
37.8736 351.00
37.9388 342.00
38.004 337.00
38.0692 342.00
38.1344 331.00
38.1996 365.00
38.2648 341.00
38.33 339.00
38.3952 330.00
38.4604 328.00
38.5256 336.00
38.5908 345.00
38.656 314.00
38.7212 324.00
38.7864 305.00
38.8516 349.00
38.9168 349.00
38.982 336.00
39.0472 327.00
39.1124 321.00
39.1776 356.00
39.2428 343.00
39.308 360.00
39.3732 345.00
39.4384 330.00
39.5036 298.00
39.5688 317.00
39.634 344.00
39.6992 343.00
39.7644 321.00
39.8296 321.00
39.8948 273.00
39.96 289.00
40.0252 338.00
40.0904 301.00
40.1556 314.00
40.2208 332.00
40.286 309.00
40.3512 321.00
40.4164 269.00
40.4816 323.00
40.5468 281.00
40.612 319.00
40.6772 347.00
40.7424 312.00
40.8076 317.00
40.8728 313.00
40.938 283.00
41.0032 339.00
41.0684 300.00
41.1336 319.00
41.1988 308.00
41.264 316.00
41.3292 288.00
41.3944 291.00
41.4596 271.00
41.5248 301.00
41.59 304.00
41.6552 310.00
41.7204 295.00
41.7856 290.00
41.8508 330.00
41.916 307.00
41.9812 332.00
42.0464 310.00
42.1116 305.00
42.1768 302.00
42.242 289.00
42.3072 300.00
42.3724 300.00
42.4376 300.00
42.5028 291.00
42.568 289.00
42.6332 287.00
42.6983 286.00
42.7635 295.00
42.8287 291.00
42.8939 274.00
42.9591 233.00
43.0243 241.00
43.0895 285.00
43.1547 234.00
43.2199 306.00
43.2851 287.00
43.3503 296.00
43.4155 278.00
43.4807 245.00
43.5459 265.00
43.6111 284.00
43.6763 271.00
43.7415 305.00
43.8067 293.00
43.8719 276.00
43.9371 277.00
44.0023 239.00
44.0675 307.00
44.1327 274.00
44.1979 283.00
44.2631 277.00
44.3283 268.00
44.3935 281.00
44.4587 276.00
44.5239 280.00
44.5891 282.00
44.6543 270.00
44.7195 268.00
44.7847 261.00
44.8499 284.00
44.9151 247.00
44.9803 293.00
45.0455 263.00
45.1107 278.00
45.1759 302.00
45.2411 276.00
45.3063 239.00
45.3715 261.00
45.4367 280.00
45.5019 268.00
45.5671 266.00
45.6323 297.00
45.6975 268.00
45.7627 363.00
45.8279 498.00
45.8931 728.00
45.9583 527.00
46.0235 481.00
46.0887 300.00
46.1539 312.00
46.2191 265.00
46.2843 274.00
46.3495 280.00
46.4147 280.00
46.4799 269.00
46.5451 259.00
46.6103 269.00
46.6755 243.00
46.7407 220.00
46.8059 243.00
46.8711 237.00
46.9363 266.00
47.0015 278.00
47.0667 245.00
47.1319 237.00
47.1971 242.00
47.2623 280.00
47.3275 235.00
47.3927 274.00
47.4579 283.00
47.523 269.00
47.5882 257.00
47.6534 229.00
47.7186 270.00
47.7838 260.00
47.849 267.00
47.9142 236.00
47.9794 246.00
48.0446 278.00
48.1098 290.00
48.175 274.00
48.2402 258.00
48.3054 288.00
48.3706 268.00
48.4358 274.00
48.501 235.00
48.5662 233.00
48.6314 224.00
48.6966 244.00
48.7618 283.00
48.827 256.00
48.8922 210.00
48.9574 220.00
49.0226 238.00
49.0878 238.00
49.153 238.00
49.2182 235.00
49.2834 209.00
49.3486 250.00
49.4138 244.00
49.479 258.00
49.5442 232.00
49.6094 245.00
49.6746 247.00
49.7398 262.00
49.805 249.00
49.8702 266.00
49.9354 217.00
50.0006 263.00
50.0658 265.00
50.131 216.00
50.1962 225.00
50.2614 260.00
50.3266 271.00
50.3918 233.00
50.457 235.00
50.5222 230.00
50.5874 232.00
50.6526 245.00
50.7178 241.00
50.783 198.00
50.8482 240.00
50.9134 231.00
50.9786 220.00
51.0438 214.00
51.109 247.00
51.1742 225.00
51.2394 234.00
51.3046 226.00
51.3698 207.00
51.435 191.00
51.5002 246.00
51.5654 266.00
51.6306 211.00
51.6958 229.00
51.761 228.00
51.8262 259.00
51.8914 217.00
51.9566 218.00
52.0218 233.00
52.087 206.00
52.1522 215.00
52.2174 218.00
52.2826 247.00
52.3477 209.00
52.4129 230.00
52.4781 214.00
52.5433 221.00
52.6085 211.00
52.6737 226.00
52.7389 239.00
52.8041 236.00
52.8693 232.00
52.9345 207.00
52.9997 233.00
53.0649 226.00
53.1301 247.00
53.1953 219.00
53.2605 216.00
53.3257 222.00
53.3909 184.00
53.4561 246.00
53.5213 271.00
53.5865 213.00
53.6517 223.00
53.7169 262.00
53.7821 211.00
53.8473 229.00
53.9125 232.00
53.9777 206.00
54.0429 199.00
54.1081 215.00
54.1733 259.00
54.2385 242.00
54.3037 262.00
54.3689 377.00
54.4341 559.00
54.4993 375.00
54.5645 420.00
54.6297 310.00
54.6949 246.00
54.7601 209.00
54.8253 256.00
54.8905 235.00
54.9557 225.00
55.0209 256.00
55.0861 200.00
55.1513 205.00
55.2165 198.00
55.2817 207.00
55.3469 215.00
55.4121 205.00
55.4773 223.00
55.5425 185.00
55.6077 208.00
55.6729 205.00
55.7381 224.00
55.8033 211.00
55.8685 207.00
55.9337 206.00
55.9989 183.00
56.0641 230.00
56.1293 210.00
56.1945 196.00
56.2597 189.00
56.3249 201.00
56.3901 188.00
56.4553 187.00
56.5205 193.00
56.5857 224.00
56.6509 199.00
56.7161 181.00
56.7813 223.00
56.8465 189.00
56.9117 209.00
56.9769 234.00
57.042 286.00
57.1073 298.00
57.1724 270.00
57.2376 259.00
57.3028 210.00
57.368 200.00
57.4332 176.00
57.4984 203.00
57.5636 196.00
57.6288 239.00
57.694 187.00
57.7592 185.00
57.8244 212.00
57.8896 213.00
57.9548 197.00
58.02 211.00
58.0852 199.00
58.1504 201.00
58.2156 181.00
58.2808 192.00
58.346 202.00
58.4112 189.00
58.4764 208.00
58.5416 164.00
58.6068 219.00
58.672 166.00
58.7372 202.00
58.8024 194.00
58.8676 183.00
58.9328 224.00
58.998 278.00
59.0632 242.00
59.1284 207.00
59.1936 201.00
59.2588 233.00
59.324 192.00
59.3892 224.00
59.4544 204.00
59.5196 190.00
59.5848 177.00
59.65 183.00
59.7152 197.00
59.7804 219.00
59.8456 166.00
59.9108 174.00
59.976 209.00
60.0412 196.00
60.1064 198.00
60.1716 197.00
60.2368 169.00
60.302 187.00
60.3672 198.00
60.4324 186.00
60.4976 182.00
60.5628 175.00
60.628 198.00
60.6932 188.00
60.7584 187.00
60.8236 203.00
60.8888 160.00
60.954 180.00
61.0192 203.00
61.0844 195.00
61.1496 162.00
61.2148 170.00
61.28 183.00
61.3452 180.00
61.4104 164.00
61.4756 183.00
61.5408 163.00
61.606 178.00
61.6712 146.00
61.7364 146.00
61.8016 183.00
61.8667 172.00
61.932 153.00
61.9971 199.00
62.0623 163.00
62.1275 171.00
62.1927 156.00
62.2579 190.00
62.3231 173.00
62.3883 174.00
62.4535 178.00
62.5187 150.00
62.5839 178.00
62.6491 149.00
62.7143 161.00
62.7795 187.00
62.8447 178.00
62.9099 177.00
62.9751 184.00
63.0403 172.00
63.1055 155.00
63.1707 166.00
63.2359 181.00
63.3011 183.00
63.3663 202.00
63.4315 187.00
63.4967 172.00
63.5619 148.00
63.6271 188.00
63.6923 150.00
63.7575 176.00
63.8227 179.00
63.8879 207.00
63.9531 187.00
64.0183 175.00
64.0835 170.00
64.1487 174.00
64.2139 150.00
64.2791 195.00
64.3443 185.00
64.4095 171.00
64.4747 171.00
64.5399 190.00
64.6051 162.00
64.6703 213.00
64.7355 164.00
64.8007 158.00
64.8659 177.00
64.9311 177.00
64.9963 170.00
65.0615 151.00
65.1267 169.00
65.1919 163.00
65.2571 173.00
65.3223 174.00
65.3875 181.00
65.4527 184.00
65.5179 159.00
65.5831 165.00
65.6483 197.00
65.7135 162.00
65.7787 202.00
65.8439 153.00
65.9091 163.00
65.9743 180.00
66.0395 168.00
66.1047 156.00
66.1699 181.00
66.2351 178.00
66.3003 167.00
66.3655 187.00
66.4307 138.00
66.4959 196.00
66.561 138.00
66.6263 176.00
66.6915 177.00
66.7566 201.00
66.8218 188.00
66.887 159.00
66.9522 181.00
67.0174 201.00
67.0826 173.00
67.1478 201.00
67.213 203.00
67.2782 179.00
67.3434 159.00
67.4086 169.00
67.4738 156.00
67.539 190.00
67.6042 147.00
67.6694 151.00
67.7346 160.00
67.7998 171.00
67.865 166.00
67.9302 178.00
67.9954 153.00
68.0606 147.00
68.1258 151.00
68.191 180.00
68.2562 165.00
68.3214 155.00
68.3866 157.00
68.4518 187.00
68.517 165.00
68.5822 164.00
68.6474 160.00
68.7126 185.00
68.7778 194.00
68.843 159.00
68.9082 205.00
68.9734 184.00
69.0386 180.00
69.1038 177.00
69.169 172.00
69.2342 156.00
69.2994 178.00
69.3646 178.00
69.4298 181.00
69.495 132.00
69.5602 169.00
69.6254 158.00
69.6906 169.00
69.7558 162.00
69.821 171.00
69.8862 183.00
69.9514 203.00
70.0166 139.00
70.0818 143.00
70.147 165.00
70.2122 169.00
70.2774 177.00
70.3426 170.00
70.4078 165.00
70.473 177.00
70.5382 189.00
70.6034 174.00
70.6686 175.00
70.7338 160.00
70.799 171.00
70.8642 136.00
70.9294 153.00
70.9946 144.00
71.0598 159.00
71.125 181.00
71.1902 161.00
71.2554 182.00
71.3205 179.00
71.3858 163.00
71.451 167.00
71.5162 155.00
71.5813 185.00
71.6465 177.00
71.7117 199.00
71.7769 181.00
71.8421 168.00
71.9073 159.00
71.9725 154.00
72.0377 202.00
72.1029 181.00
72.1681 149.00
72.2333 164.00
72.2985 187.00
72.3637 170.00
72.4289 185.00
72.4941 165.00
72.5593 200.00
72.6245 201.00
72.6897 200.00
72.7549 202.00
72.8201 162.00
72.8853 160.00
72.9505 148.00
73.0157 173.00
73.0809 180.00
73.1461 169.00
73.2113 213.00
73.2765 194.00
73.3417 174.00
73.4069 176.00
73.4721 170.00
73.5373 164.00
73.6025 188.00
73.6677 152.00
73.7329 193.00
73.7981 182.00
73.8633 214.00
73.9285 229.00
73.9937 248.00
74.0589 207.00
74.1241 215.00
74.1893 207.00
74.2545 206.00
74.3197 177.00
74.3849 186.00
74.4501 208.00
74.5153 177.00
74.5805 178.00
74.6457 187.00
74.7109 205.00
74.7761 186.00
74.8413 184.00
74.9065 191.00
74.9717 154.00
75.0369 186.00
75.1021 148.00
75.1673 171.00
75.2325 173.00
75.2977 172.00
75.3629 193.00
75.4281 149.00
75.4933 192.00
75.5585 207.00
75.6237 199.00
75.6889 187.00
75.7541 178.00
75.8193 214.00
75.8845 169.00
75.9497 175.00
76.0149 194.00
76.0801 170.00
76.1452 220.00
76.2104 262.00
76.2756 209.00
76.3409 227.00
76.406 213.00
76.4712 184.00
76.5364 185.00
76.6016 179.00
76.6668 201.00
76.732 179.00
76.7972 199.00
76.8624 190.00
76.9276 182.00
76.9928 155.00
77.058 171.00
77.1232 205.00
77.1884 193.00
77.2536 206.00
77.3188 175.00
77.384 176.00
77.4492 167.00
77.5144 167.00
77.5796 192.00
77.6448 193.00
77.71 201.00
77.7752 231.00
77.8404 175.00
77.9056 204.00
77.9708 188.00
78.036 196.00
78.1012 199.00
78.1664 199.00
78.2316 214.00
78.2968 189.00
78.362 195.00
78.4272 203.00
78.4924 198.00
78.5576 203.00
78.6228 199.00
78.688 195.00
78.7532 203.00
78.8184 215.00
78.8836 178.00
78.9488 208.00
79.014 205.00
79.0792 210.00
79.1444 204.00
79.2096 211.00
79.2748 204.00
79.34 194.00
79.4052 208.00
79.4704 218.00
79.5356 187.00
79.6008 218.00
79.666 207.00
79.7312 199.00
79.7964 217.00
79.8616 207.00
79.9268 210.00
79.992 206.00
80.0572 234.00
80.1224 197.00
80.1876 195.00
80.2528 195.00
80.318 221.00
80.3832 218.00
80.4484 211.00
80.5136 203.00
80.5788 227.00
80.644 193.00
80.7092 191.00
80.7744 190.00
80.8396 215.00
80.9048 225.00
80.9699 232.00
81.0351 183.00
81.1003 207.00
81.1655 208.00
81.2307 220.00
81.2959 200.00
81.3611 227.00
81.4263 221.00
81.4915 202.00
81.5567 194.00
81.6219 233.00
81.6871 232.00
81.7523 203.00
81.8175 187.00
81.8827 197.00
81.9479 201.00
82.0131 194.00
82.0783 234.00
82.1435 178.00
82.2087 194.00
82.2739 262.00
82.3391 220.00
82.4043 199.00
82.4695 224.00
82.5347 220.00
82.5999 222.00
82.6651 185.00
82.7303 225.00
82.7955 214.00
82.8607 195.00
82.9259 194.00
82.9911 189.00
83.0563 191.00
83.1215 194.00
83.1867 221.00
83.2519 219.00
83.3171 212.00
83.3823 176.00
83.4475 212.00
83.5127 186.00
83.5779 186.00
83.6431 197.00
83.7083 189.00
83.7735 216.00
83.8387 206.00
83.9039 207.00
83.9691 235.00
84.0343 224.00
84.0995 180.00
84.1647 192.00
84.2299 222.00
84.2951 212.00
84.3603 175.00
84.4255 213.00
84.4907 186.00
84.5559 194.00
84.6211 186.00
84.6863 186.00
84.7515 212.00
84.8167 176.00
84.8819 214.00
84.9471 196.00
85.0123 204.00
85.0775 246.00
85.1427 195.00
85.2079 174.00
85.2731 237.00
85.3383 188.00
85.4035 222.00
85.4687 199.00
85.5339 194.00
85.5991 178.00
85.6643 187.00
85.7295 201.00
85.7946 202.00
85.8598 194.00
85.925 213.00
85.9903 168.00
86.0554 190.00
86.1206 168.00
86.1858 191.00
86.251 176.00
86.3162 178.00
86.3814 180.00
86.4466 222.00
86.5118 199.00
86.577 164.00
86.6422 181.00
86.7074 202.00
86.7726 179.00
86.8378 169.00
86.903 178.00
86.9682 187.00
87.0334 182.00
87.0986 186.00
87.1638 173.00
87.229 183.00
87.2942 203.00
87.3594 190.00
87.4246 197.00
87.4898 199.00
87.555 179.00
87.6202 176.00
87.6854 185.00
87.7506 192.00
87.8158 178.00
87.881 179.00
87.9462 177.00
88.0114 192.00
88.0766 180.00
88.1418 184.00
88.207 160.00
88.2722 182.00
88.3374 198.00
88.4026 196.00
88.4678 198.00
88.533 180.00
88.5982 151.00
88.6634 180.00
88.7286 165.00
88.7938 190.00
88.859 171.00
88.9242 188.00
88.9894 194.00
89.0546 196.00
89.1198 195.00
89.185 182.00
89.2502 174.00
89.3154 168.00
89.3806 184.00
89.4458 185.00
89.511 172.00
89.5762 187.00
89.6414 148.00
89.7066 160.00
89.7718 162.00
89.837 159.00
89.9022 165.00
89.9674 132.00
90.0326 156.00
90.0978 171.00
90.163 184.00
90.2282 181.00
90.2934 191.00
90.3586 166.00
90.4238 141.00
90.489 155.00
90.5542 170.00
90.6193 197.00
90.6845 173.00
90.7497 178.00
90.8149 169.00
90.8801 173.00
90.9453 169.00
91.0105 166.00
91.0757 150.00
91.1409 190.00
91.2061 187.00
91.2713 172.00
91.3365 177.00
91.4017 195.00
91.4669 195.00
91.5321 170.00
91.5973 198.00
91.6625 214.00
91.7277 179.00
91.7929 164.00
91.8581 205.00
91.9233 193.00
91.9885 180.00
92.0537 184.00
92.1189 163.00
92.1841 168.00
92.2493 178.00
92.3145 191.00
92.3797 182.00
92.4449 158.00
92.5101 168.00
92.5753 148.00
92.6405 161.00
92.7057 179.00
92.7709 179.00
92.8361 149.00
92.9013 176.00
92.9665 170.00
93.0317 156.00
93.0969 171.00
93.1621 189.00
93.2273 186.00
93.2925 174.00
93.3577 172.00
93.4229 185.00
93.4881 166.00
93.5533 181.00
93.6185 174.00
93.6837 158.00
93.7489 179.00
93.8141 172.00
93.8793 155.00
93.9445 153.00
94.0097 133.00
94.0749 165.00
94.1401 150.00
94.2053 169.00
94.2705 173.00
94.3357 169.00
94.4009 157.00
94.4661 166.00
94.5313 170.00
94.5965 190.00
94.6617 183.00
94.7269 150.00
94.7921 162.00
94.8573 157.00
94.9225 162.00
94.9877 152.00
95.0529 188.00
95.1181 172.00
95.1833 154.00
95.2485 166.00
95.3137 184.00
95.3789 182.00
95.444 172.00
95.5092 182.00
95.5744 172.00
95.6396 186.00
95.7048 149.00
95.77 176.00
95.8352 163.00
95.9004 160.00
95.9656 189.00
96.0308 169.00
96.096 158.00
96.1612 183.00
96.2264 183.00
96.2916 161.00
96.3568 189.00
96.422 152.00
96.4872 159.00
96.5524 172.00
96.6176 143.00
96.6828 162.00
96.748 213.00
96.8132 192.00
96.8784 148.00
96.9436 135.00
97.0088 172.00
97.074 170.00
97.1392 147.00
97.2044 161.00
97.2696 150.00
97.3348 153.00
97.4 173.00
97.4652 159.00
97.5304 173.00
97.5956 162.00
97.6608 169.00
97.726 163.00
97.7912 157.00
97.8564 167.00
97.9216 174.00
97.9868 177.00
98.052 196.00
98.1172 170.00
98.1824 166.00
98.2476 164.00
98.3128 160.00
98.378 171.00
98.4432 158.00
98.5084 210.00
98.5736 135.00
98.6388 160.00
98.704 160.00
98.7692 144.00
98.8344 172.00
98.8996 139.00
98.9648 177.00
99.03 169.00
99.0952 170.00
99.1604 146.00
99.2256 161.00
99.2908 143.00
99.356 163.00
99.4212 153.00
99.4864 166.00
99.5516 148.00
99.6168 161.00
99.682 163.00
99.7472 167.00
99.8124 172.00
99.8776 171.00
99.9428 170.00
100.008 163.00
100.073 133.00
100.095 150.00