File: data/xrd_creation/results/PG_2549-1.xy
9.903433 2476.00
9.968632 2447.00
10.0338 2397.00
10.099 2420.00
10.1642 2402.00
10.2294 2330.00
10.2946 2391.00
10.3598 2294.00
10.425 2260.00
10.4902 2305.00
10.5554 2317.00
10.6206 2207.00
10.6858 2165.00
10.751 2272.00
10.8162 2141.00
10.8814 2152.00
10.9466 2124.00
11.0118 1953.00
11.077 2051.00
11.1422 2037.00
11.2074 2038.00
11.2726 2035.00
11.3378 1998.00
11.403 2003.00
11.4682 1994.00
11.5334 2025.00
11.5986 1938.00
11.6638 1947.00
11.729 1964.00
11.7942 1882.00
11.8594 1857.00
11.9246 1891.00
11.9898 1884.00
12.055 1700.00
12.1202 1861.00
12.1854 1837.00
12.2506 1833.00
12.3158 1794.00
12.381 1793.00
12.4462 1823.00
12.5114 1763.00
12.5766 1684.00
12.6418 1705.00
12.707 1731.00
12.7722 1710.00
12.8374 1674.00
12.9026 1663.00
12.9678 1695.00
13.033 1694.00
13.0982 1681.00
13.1634 1701.00
13.2286 1626.00
13.2938 1604.00
13.359 1581.00
13.4242 1618.00
13.4894 1541.00
13.5546 1562.00
13.6198 1609.00
13.685 1545.00
13.7502 1562.00
13.8154 1557.00
13.8805 1484.00
13.9457 1578.00
14.0109 1504.00
14.0761 1469.00
14.1413 1447.00
14.2065 1451.00
14.2717 1475.00
14.3369 1482.00
14.4021 1531.00
14.4673 1473.00
14.5325 1502.00
14.5977 1396.00
14.6629 1453.00
14.7281 1422.00
14.7933 1460.00
14.8585 1513.00
14.9237 1442.00
14.9889 1426.00
15.0541 1401.00
15.1193 1406.00
15.1845 1426.00
15.2497 1436.00
15.3149 1418.00
15.3801 1428.00
15.4453 1483.00
15.5105 1556.00
15.5757 1694.00
15.6409 1814.00
15.7061 2011.00
15.7713 2332.00
15.8365 3110.00
15.9017 4474.00
15.9669 4076.00
16.0321 1888.00
16.0973 1497.00
16.1625 1412.00
16.2277 1417.00
16.2929 1319.00
16.3581 1328.00
16.4233 1403.00
16.4885 1293.00
16.5537 1352.00
16.6189 1254.00
16.6841 1230.00
16.7493 1363.00
16.8145 1327.00
16.8797 1276.00
16.9449 1300.00
17.0101 1259.00
17.0753 1231.00
17.1405 1368.00
17.2057 1256.00
17.2709 1240.00
17.3361 1275.00
17.4013 1257.00
17.4665 1197.00
17.5317 1131.00
17.5969 1286.00
17.6621 1207.00
17.7273 1174.00
17.7925 1121.00
17.8577 1260.00
17.9229 1216.00
17.9881 1145.00
18.0533 1203.00
18.1185 1192.00
18.1837 1143.00
18.2489 1146.00
18.3141 1239.00
18.3793 1216.00
18.4445 1260.00
18.5097 1225.00
18.5749 1304.00
18.6401 1349.00
18.7052 1383.00
18.7704 1546.00
18.8356 1763.00
18.9008 2242.00
18.966 2995.00
19.0312 4135.00
19.0964 6398.00
19.1616 11247.00
19.2268 16795.00
19.292 9816.00
19.3572 2755.00
19.4224 1637.00
19.4876 1406.00
19.5528 1364.00
19.618 1316.00
19.6832 1186.00
19.7484 1121.00
19.8136 1082.00
19.8788 1064.00
19.944 1081.00
20.0092 1055.00
20.0744 1109.00
20.1396 1115.00
20.2048 1149.00
20.27 1027.00
20.3352 1038.00
20.4004 1062.00
20.4656 1044.00
20.5308 1088.00
20.596 991.00
20.6612 1093.00
20.7264 1040.00
20.7916 1058.00
20.8568 1024.00
20.922 1031.00
20.9872 1003.00
21.0524 1045.00
21.1176 1044.00
21.1828 994.00
21.248 942.00
21.3132 985.00
21.3784 975.00
21.4436 964.00
21.5088 978.00
21.574 1027.00
21.6392 969.00
21.7044 970.00
21.7696 969.00
21.8348 988.00
21.9 1002.00
21.9652 964.00
22.0304 927.00
22.0956 916.00
22.1608 975.00
22.226 949.00
22.2912 961.00
22.3564 952.00
22.4216 945.00
22.4868 953.00
22.552 947.00
22.6172 939.00
22.6824 960.00
22.7476 972.00
22.8128 977.00
22.878 945.00
22.9432 1012.00
23.0084 926.00
23.0736 1087.00
23.1388 1111.00
23.204 1322.00
23.2692 1789.00
23.3344 2655.00
23.3996 4688.00
23.4647 5323.00
23.5299 2400.00
23.5951 1404.00
23.6603 1496.00
23.7255 1857.00
23.7907 2454.00
23.8559 4154.00
23.9211 5780.00
23.9863 5279.00
24.0515 5324.00
24.1167 9019.00
24.1819 16780.00
24.2471 16848.00
24.3123 7129.00
24.3775 2406.00
24.4427 2020.00
24.5079 2322.00
24.5731 3301.00
24.6383 5215.00
24.7035 6047.00
24.7687 4059.00
24.8339 4700.00
24.8991 7292.00
24.9643 6996.00
25.0295 3324.00
25.0947 1525.00
25.1599 1197.00
25.2251 1086.00
25.2903 1037.00
25.3555 981.00
25.4207 961.00
25.4859 913.00
25.5511 955.00
25.6163 889.00
25.6815 895.00
25.7467 895.00
25.8119 857.00
25.8771 857.00
25.9423 828.00
26.0075 861.00
26.0727 903.00
26.1379 860.00
26.2031 850.00
26.2683 895.00
26.3335 870.00
26.3987 871.00
26.4639 790.00
26.5291 808.00
26.5943 822.00
26.6595 901.00
26.7247 917.00
26.7899 1101.00
26.8551 1312.00
26.9203 1470.00
26.9855 1069.00
27.0507 925.00
27.1159 872.00
27.1811 837.00
27.2463 751.00
27.3115 778.00
27.3767 717.00
27.4419 726.00
27.5071 731.00
27.5723 751.00
27.6375 714.00
27.7027 746.00
27.7679 835.00
27.8331 805.00
27.8983 764.00
27.9635 861.00
28.0287 801.00
28.0939 784.00
28.1591 735.00
28.2243 751.00
28.2894 746.00
28.3546 711.00
28.4198 725.00
28.485 748.00
28.5502 770.00
28.6154 860.00
28.6806 863.00
28.7458 868.00
28.811 928.00
28.8762 1078.00
28.9414 1280.00
29.0066 1158.00
29.0718 993.00
29.137 1119.00
29.2022 1418.00
29.2674 1346.00
29.3326 1134.00
29.3978 865.00
29.463 741.00
29.5282 707.00
29.5934 729.00
29.6586 739.00
29.7238 720.00
29.789 738.00
29.8542 746.00
29.9194 740.00
29.9846 856.00
30.0498 790.00
30.115 849.00
30.1802 813.00
30.2454 919.00
30.3106 982.00
30.3758 1022.00
30.441 1123.00
30.5062 1353.00
30.5714 2011.00
30.6366 3624.00
30.7018 7896.00
30.767 15826.00
30.8322 17800.00
30.8974 10683.00
30.9626 6121.00
31.0278 9455.00
31.093 16449.00
31.1582 15066.00
31.2234 7621.00
31.2886 2803.00
31.3538 1564.00
31.419 1205.00
31.4842 1061.00
31.5494 1046.00
31.6146 1126.00
31.6798 1555.00
31.745 2721.00
31.8102 4449.00
31.8754 3464.00
31.9406 2018.00
32.0058 999.00
32.071 801.00
32.1362 744.00
32.2014 722.00
32.2666 733.00
32.3318 651.00
32.397 684.00
32.4622 664.00
32.5274 645.00
32.5926 657.00
32.6578 673.00
32.723 647.00
32.7882 640.00
32.8534 692.00
32.9186 689.00
32.9838 756.00
33.0489 706.00
33.1141 686.00
33.1793 798.00
33.2445 1001.00
33.3097 1049.00
33.3749 1007.00
33.4401 1051.00
33.5053 1552.00
33.5705 2248.00
33.6357 1604.00
33.7009 1118.00
33.7661 1240.00
33.8313 1650.00
33.8965 2029.00
33.9617 1724.00
34.0269 1177.00
34.0921 1005.00
34.1573 1093.00
34.2225 1300.00
34.2877 1472.00
34.3529 1886.00
34.4181 2758.00
34.4833 2937.00
34.5485 1805.00
34.6137 1127.00
34.6789 940.00
34.7441 909.00
34.8093 907.00
34.8745 725.00
34.9397 615.00
35.0049 554.00
35.0701 612.00
35.1353 597.00
35.2005 599.00
35.2657 604.00
35.3309 560.00
35.3961 609.00
35.4613 584.00
35.5265 669.00
35.5917 660.00
35.6569 765.00
35.7221 843.00
35.7873 745.00
35.8525 736.00
35.9177 802.00
35.9829 830.00
36.0481 741.00
36.1133 718.00
36.1785 754.00
36.2437 741.00
36.3089 697.00
36.3741 762.00
36.4393 785.00
36.5045 922.00
36.5697 1467.00
36.6349 2633.00
36.7001 5725.00
36.7653 8506.00
36.8305 8208.00
36.8957 4799.00
36.9609 2377.00
37.0261 1188.00
37.0913 1101.00
37.1565 1359.00
37.2217 2232.00
37.2869 3555.00
37.3521 3117.00
37.4173 2085.00
37.4825 1190.00
37.5477 763.00
37.6129 680.00
37.6781 656.00
37.7433 615.00
37.8085 580.00
37.8736 596.00
37.9388 581.00
38.004 551.00
38.0692 530.00
38.1344 534.00
38.1996 545.00
38.2648 531.00
38.33 580.00
38.3952 621.00
38.4604 730.00
38.5256 1135.00
38.5908 2027.00
38.656 3164.00
38.7212 2562.00
38.7864 1730.00
38.8516 887.00
38.9168 600.00
38.982 594.00
39.0472 551.00
39.1124 474.00
39.1776 552.00
39.2428 481.00
39.308 518.00
39.3732 485.00
39.4384 505.00
39.5036 487.00
39.5688 513.00
39.634 510.00
39.6992 529.00
39.7644 494.00
39.8296 461.00
39.8948 564.00
39.96 555.00
40.0252 636.00
40.0904 891.00
40.1556 1166.00
40.2208 922.00
40.286 736.00
40.3512 624.00
40.4164 528.00
40.4816 505.00
40.5468 546.00
40.612 552.00
40.6772 512.00
40.7424 535.00
40.8076 531.00
40.8728 514.00
40.938 613.00
41.0032 610.00
41.0684 669.00
41.1336 743.00
41.1988 966.00
41.264 1447.00
41.3292 2670.00
41.3944 4972.00
41.4596 5074.00
41.5248 3599.00
41.59 2576.00
41.6552 2304.00
41.7204 3036.00
41.7856 5121.00
41.8508 7549.00
41.916 6750.00
41.9812 4894.00
42.0464 2822.00
42.1116 1703.00
42.1768 1677.00
42.242 1407.00
42.3072 1114.00
42.3724 782.00
42.4376 655.00
42.5028 533.00
42.568 518.00
42.6332 543.00
42.6983 535.00
42.7635 508.00
42.8287 542.00
42.8939 538.00
42.9591 553.00
43.0243 636.00
43.0895 849.00
43.1547 1420.00
43.2199 1908.00
43.2851 1394.00
43.3503 995.00
43.4155 633.00
43.4807 504.00
43.5459 480.00
43.6111 489.00
43.6763 521.00
43.7415 510.00
43.8067 446.00
43.8719 475.00
43.9371 455.00
44.0023 497.00
44.0675 435.00
44.1327 481.00
44.1979 501.00
44.2631 513.00
44.3283 559.00
44.3935 701.00
44.4587 1153.00
44.5239 1709.00
44.5891 1516.00
44.6543 1147.00
44.7195 850.00
44.7847 636.00
44.8499 834.00
44.9151 1352.00
44.9803 1913.00
45.0455 1586.00
45.1107 1354.00
45.1759 944.00
45.2411 715.00
45.3063 667.00
45.3715 608.00
45.4367 633.00
45.5019 690.00
45.5671 802.00
45.6323 1194.00
45.6975 1961.00
45.7627 2851.00
45.8279 2599.00
45.8931 2004.00
45.9583 1350.00
46.0235 1039.00
46.0887 1378.00
46.1539 2552.00
46.2191 3547.00
46.2843 2967.00
46.3495 2283.00
46.4147 1250.00
46.4799 741.00
46.5451 567.00
46.6103 484.00
46.6755 447.00
46.7407 448.00
46.8059 433.00
46.8711 410.00
46.9363 407.00
47.0015 396.00
47.0667 470.00
47.1319 400.00
47.1971 408.00
47.2623 420.00
47.3275 424.00
47.3927 477.00
47.4579 606.00
47.523 978.00
47.5882 803.00
47.6534 749.00
47.7186 599.00
47.7838 452.00
47.849 455.00
47.9142 447.00
47.9794 488.00
48.0446 453.00
48.1098 511.00
48.175 564.00
48.2402 761.00
48.3054 1340.00
48.3706 1701.00
48.4358 1467.00
48.501 1380.00
48.5662 1137.00
48.6314 865.00
48.6966 808.00
48.7618 650.00
48.827 606.00
48.8922 544.00
48.9574 574.00
49.0226 702.00
49.0878 1040.00
49.153 2148.00
49.2182 2793.00
49.2834 2256.00
49.3486 1814.00
49.4138 984.00
49.479 640.00
49.5442 524.00
49.6094 506.00
49.6746 504.00
49.7398 441.00
49.805 441.00
49.8702 480.00
49.9354 461.00
50.0006 590.00
50.0658 715.00
50.131 1158.00
50.1962 1792.00
50.2614 1366.00
50.3266 1330.00
50.3918 1006.00
50.457 893.00
50.5222 993.00
50.5874 1320.00
50.6526 2010.00
50.7178 2693.00
50.783 2546.00
50.8482 2059.00
50.9134 1740.00
50.9786 1388.00
51.0438 1102.00
51.109 951.00
51.1742 768.00
51.2394 620.00
51.3046 549.00
51.3698 496.00
51.435 446.00
51.5002 444.00
51.5654 474.00
51.6306 437.00
51.6958 480.00
51.761 496.00
51.8262 445.00
51.8914 532.00
51.9566 667.00
52.0218 756.00
52.087 676.00
52.1522 821.00
52.2174 1135.00
52.2826 2012.00
52.3477 3787.00
52.4129 4128.00
52.4781 3178.00
52.5433 2416.00
52.6085 1493.00
52.6737 797.00
52.7389 728.00
52.8041 662.00
52.8693 790.00
52.9345 1142.00
52.9997 1465.00
53.0649 1211.00
53.1301 1089.00
53.1953 856.00
53.2605 844.00
53.3257 1374.00
53.3909 1651.00
53.4561 1360.00
53.5213 1378.00
53.5865 1158.00
53.6517 1159.00
53.7169 2142.00
53.7821 3087.00
53.8473 3414.00
53.9125 3123.00
53.9777 3161.00
54.0429 3687.00
54.1081 3561.00
54.1733 2711.00
54.2385 2402.00
54.3037 2059.00
54.3689 2493.00
54.4341 3854.00
54.4993 4367.00
54.5645 4972.00
54.6297 4585.00
54.6949 3073.00
54.7601 2402.00
54.8253 1405.00
54.8905 880.00
54.9557 806.00
55.0209 929.00
55.0861 900.00
55.1513 731.00
55.2165 747.00
55.2817 621.00
55.3469 581.00
55.4121 604.00
55.4773 655.00
55.5425 904.00
55.6077 968.00
55.6729 927.00
55.7381 1162.00
55.8033 1103.00
55.8685 1128.00
55.9337 1265.00
55.9989 985.00
56.0641 1105.00
56.1293 1002.00
56.1945 1315.00
56.2597 1195.00
56.3249 1339.00
56.3901 1364.00
56.4553 1141.00
56.5205 1013.00
56.5857 759.00
56.6509 631.00
56.7161 558.00
56.7813 512.00
56.8465 463.00
56.9117 415.00
56.9769 439.00
57.042 475.00
57.1073 590.00
57.1724 626.00
57.2376 605.00
57.3028 622.00
57.368 588.00
57.4332 434.00
57.4984 465.00
57.5636 439.00
57.6288 409.00
57.694 408.00
57.7592 409.00
57.8244 404.00
57.8896 429.00
57.9548 458.00
58.02 430.00
58.0852 382.00
58.1504 415.00
58.2156 388.00
58.2808 446.00
58.346 423.00
58.4112 443.00
58.4764 506.00
58.5416 560.00
58.6068 817.00
58.672 1418.00
58.7372 1686.00
58.8024 1192.00
58.8676 1176.00
58.9328 905.00
58.998 595.00
59.0632 486.00
59.1284 498.00
59.1936 574.00
59.2588 792.00
59.324 938.00
59.3892 904.00
59.4544 819.00
59.5196 758.00
59.5848 581.00
59.65 559.00
59.7152 491.00
59.7804 438.00
59.8456 427.00
59.9108 401.00
59.976 453.00
60.0412 465.00
60.1064 501.00
60.1716 597.00
60.2368 593.00
60.302 682.00
60.3672 616.00
60.4324 553.00
60.4976 602.00
60.5628 512.00
60.628 623.00
60.6932 627.00
60.7584 514.00
60.8236 608.00
60.8888 555.00
60.954 442.00
61.0192 480.00
61.0844 439.00
61.1496 494.00
61.2148 597.00
61.28 647.00
61.3452 539.00
61.4104 639.00
61.4756 584.00
61.5408 534.00
61.606 641.00
61.6712 807.00
61.7364 985.00
61.8016 1146.00
61.8667 1629.00
61.932 2589.00
61.9971 3865.00
62.0623 3734.00
62.1275 2892.00
62.1927 2586.00
62.2579 1924.00
62.3231 1258.00
62.3883 1200.00
62.4535 1821.00
62.5187 3163.00
62.5839 2796.00
62.6491 2185.00
62.7143 2028.00
62.7795 1374.00
62.8447 863.00
62.9099 669.00
62.9751 606.00
63.0403 628.00
63.1055 633.00
63.1707 687.00
63.2359 866.00
63.3011 1177.00
63.3663 1513.00
63.4315 1399.00
63.4967 1403.00
63.5619 1368.00
63.6271 1274.00
63.6923 1382.00
63.7575 1419.00
63.8227 1034.00
63.8879 889.00
63.9531 828.00
64.0183 638.00
64.0835 497.00
64.1487 497.00
64.2139 549.00
64.2791 658.00
64.3443 963.00
64.4095 1313.00
64.4747 1444.00
64.5399 1852.00
64.6051 2320.00
64.6703 2207.00
64.7355 1712.00
64.8007 1411.00
64.8659 1184.00
64.9311 923.00
64.9963 1003.00
65.0615 1398.00
65.1267 2118.00
65.1919 2233.00
65.2571 2417.00
65.3223 3086.00
65.3875 2440.00
65.4527 1925.00
65.5179 1906.00
65.5831 2014.00
65.6483 2240.00
65.7135 2244.00
65.7787 2410.00
65.8439 3088.00
65.9091 2854.00
65.9743 2135.00
66.0395 1815.00
66.1047 1436.00
66.1699 999.00
66.2351 849.00
66.3003 678.00
66.3655 598.00
66.4307 565.00
66.4959 548.00
66.561 501.00
66.6263 473.00
66.6915 487.00
66.7566 499.00
66.8218 516.00
66.887 492.00
66.9522 424.00
67.0174 382.00
67.0826 416.00
67.1478 406.00
67.213 403.00
67.2782 431.00
67.3434 509.00
67.4086 429.00
67.4738 449.00
67.539 443.00
67.6042 419.00
67.6694 401.00
67.7346 398.00
67.7998 488.00
67.865 501.00
67.9302 421.00
67.9954 421.00
68.0606 475.00
68.1258 395.00
68.191 366.00
68.2562 425.00
68.3214 393.00
68.3866 378.00
68.4518 408.00
68.517 469.00
68.5822 531.00
68.6474 630.00
68.7126 708.00
68.7778 870.00
68.843 954.00
68.9082 1253.00
68.9734 1758.00
69.0386 2228.00
69.1038 2185.00
69.169 1706.00
69.2342 1554.00
69.2994 1230.00
69.3646 1072.00
69.4298 947.00
69.495 898.00
69.5602 798.00
69.6254 721.00
69.6906 631.00
69.7558 569.00
69.821 446.00
69.8862 423.00
69.9514 411.00
70.0166 445.00
70.0818 469.00
70.147 453.00
70.2122 364.00
70.2774 464.00
70.3426 359.00
70.4078 402.00
70.473 338.00
70.5382 344.00
70.6034 393.00
70.6686 448.00
70.7338 414.00
70.799 521.00
70.8642 492.00
70.9294 460.00
70.9946 490.00
71.0598 533.00
71.125 618.00
71.1902 665.00
71.2554 710.00
71.3205 830.00
71.3858 990.00
71.451 1087.00
71.5162 1137.00
71.5813 950.00
71.6465 949.00
71.7117 1047.00
71.7769 1107.00
71.8421 1214.00
71.9073 1234.00
71.9725 1164.00
72.0377 1371.00
72.1029 1549.00
72.1681 1829.00
72.2333 1977.00
72.2985 1899.00
72.3637 1855.00
72.4289 1825.00
72.4941 1449.00
72.5593 1126.00
72.6245 941.00
72.6897 874.00
72.7549 912.00
72.8201 1063.00
72.8853 976.00
72.9505 832.00
73.0157 780.00
73.0809 786.00
73.1461 598.00
73.2113 532.00
73.2765 558.00
73.3417 590.00
73.4069 606.00
73.4721 596.00
73.5373 491.00
73.6025 502.00
73.6677 414.00
73.7329 435.00
73.7981 463.00
73.8633 427.00
73.9285 413.00
73.9937 430.00
74.0589 437.00
74.1241 411.00
74.1893 398.00
74.2545 469.00
74.3197 537.00
74.3849 543.00
74.4501 488.00
74.5153 446.00
74.5805 476.00
74.6457 471.00
74.7109 374.00
74.7761 449.00
74.8413 496.00
74.9065 646.00
74.9717 809.00
75.0369 961.00
75.1021 926.00
75.1673 773.00
75.2325 731.00
75.2977 607.00
75.3629 559.00
75.4281 473.00
75.4933 503.00
75.5585 652.00
75.6237 704.00
75.6889 799.00
75.7541 813.00
75.8193 799.00
75.8845 722.00
75.9497 618.00
76.0149 560.00
76.0801 443.00
76.1452 403.00
76.2104 385.00
76.2756 432.00
76.3409 427.00
76.406 466.00
76.4712 552.00
76.5364 463.00
76.6016 431.00
76.6668 566.00
76.732 467.00
76.7972 497.00
76.8624 514.00
76.9276 685.00
76.9928 638.00
77.058 633.00
77.1232 657.00
77.1884 700.00
77.2536 598.00
77.3188 566.00
77.384 531.00
77.4492 522.00
77.5144 599.00
77.5796 764.00
77.6448 826.00
77.71 652.00
77.7752 635.00
77.8404 549.00
77.9056 508.00
77.9708 441.00
78.036 371.00
78.1012 393.00
78.1664 379.00
78.2316 420.00
78.2968 489.00
78.362 590.00
78.4272 622.00
78.4924 531.00
78.5576 546.00
78.6228 553.00
78.688 542.00
78.7532 528.00
78.8184 601.00
78.8836 572.00
78.9488 509.00
79.014 479.00
79.0792 489.00
79.1444 447.00
79.2096 480.00
79.2748 531.00
79.34 620.00
79.4052 607.00
79.4704 588.00
79.5356 708.00
79.6008 889.00
79.666 1013.00
79.7312 1140.00
79.7964 1189.00
79.8616 1067.00
79.9268 1037.00
79.992 961.00
80.0572 814.00
80.1224 645.00
80.1876 582.00
80.2528 463.00
80.318 505.00
80.3832 625.00
80.4484 578.00
80.5136 575.00
80.5788 540.00
80.644 517.00
80.7092 588.00
80.7744 597.00
80.8396 622.00
80.9048 601.00
80.9699 628.00
81.0351 782.00
81.1003 870.00
81.1655 777.00
81.2307 675.00
81.2959 716.00
81.3611 630.00
81.4263 649.00
81.4915 616.00
81.5567 661.00
81.6219 899.00
81.6871 1111.00
81.7523 1177.00
81.8175 1160.00
81.8827 1203.00
81.9479 1304.00
82.0131 1352.00
82.0783 1136.00
82.1435 1050.00
82.2087 1007.00
82.2739 1067.00
82.3391 1165.00
82.4043 1115.00
82.4695 979.00
82.5347 896.00
82.5999 900.00
82.6651 745.00
82.7303 693.00
82.7955 560.00
82.8607 519.00
82.9259 499.00
82.9911 453.00
83.0563 506.00
83.1215 475.00
83.1867 577.00
83.2519 564.00
83.3171 472.00
83.3823 424.00
83.4475 445.00
83.5127 474.00
83.5779 451.00
83.6431 527.00
83.7083 462.00
83.7735 398.00
83.8387 403.00
83.9039 525.00
83.9691 446.00
84.0343 393.00
84.0995 371.00
84.1647 353.00
84.2299 391.00
84.2951 356.00
84.3603 350.00
84.4255 318.00
84.4907 364.00
84.5559 343.00
84.6211 353.00
84.6863 360.00
84.7515 371.00
84.8167 354.00
84.8819 363.00
84.9471 344.00
85.0123 361.00
85.0775 399.00
85.1427 436.00
85.2079 349.00
85.2731 345.00
85.3383 373.00
85.4035 342.00
85.4687 356.00
85.5339 334.00
85.5991 408.00
85.6643 441.00
85.7295 434.00
85.7946 413.00
85.8598 499.00
85.925 474.00
85.9903 606.00
86.0554 539.00
86.1206 743.00
86.1858 742.00
86.251 686.00
86.3162 691.00
86.3814 647.00
86.4466 575.00
86.5118 531.00
86.577 526.00
86.6422 513.00
86.7074 482.00
86.7726 547.00
86.8378 559.00
86.903 643.00
86.9682 724.00
87.0334 790.00
87.0986 736.00
87.1638 742.00
87.229 773.00
87.2942 810.00
87.3594 877.00
87.4246 963.00
87.4898 871.00
87.555 852.00
87.6202 925.00
87.6854 912.00
87.7506 810.00
87.8158 717.00
87.881 667.00
87.9462 564.00
88.0114 493.00
88.0766 453.00
88.1418 460.00
88.207 458.00
88.2722 399.00
88.3374 442.00
88.4026 524.00
88.4678 529.00
88.533 603.00
88.5982 693.00
88.6634 914.00
88.7286 1158.00
88.7938 1303.00
88.859 1215.00
88.9242 1067.00
88.9894 1145.00
89.0546 1063.00
89.1198 881.00
89.185 786.00
89.2502 713.00
89.3154 660.00
89.3806 691.00
89.4458 723.00
89.511 754.00
89.5762 712.00
89.6414 610.00
89.7066 632.00
89.7718 641.00
89.837 544.00
89.9022 522.00
89.9674 541.00
90.0326 537.00
90.0978 478.00
90.163 460.00
90.2282 505.00
90.2934 609.00
90.3586 690.00
90.4238 816.00
90.489 912.00
90.5542 947.00
90.6193 1070.00
90.6845 1128.00
90.7497 1102.00
90.8149 1044.00
90.8801 906.00
90.9453 879.00
91.0105 772.00
91.0757 694.00
91.1409 623.00
91.2061 648.00
91.2713 655.00
91.3365 785.00
91.4017 903.00
91.4669 949.00
91.5321 927.00
91.5973 929.00
91.6625 896.00
91.7277 928.00
91.7929 1005.00
91.8581 1109.00
91.9233 1012.00
91.9885 847.00
92.0537 748.00
92.1189 726.00
92.1841 727.00
92.2493 638.00
92.3145 589.00
92.3797 451.00
92.4449 370.00
92.5101 411.00
92.5753 466.00
92.6405 416.00
92.7057 410.00
92.7709 440.00
92.8361 480.00
92.9013 518.00
92.9665 521.00
93.0317 542.00
93.0969 565.00
93.1621 582.00
93.2273 645.00
93.2925 659.00
93.3577 682.00
93.4229 646.00
93.4881 605.00
93.5533 583.00
93.6185 566.00
93.6837 666.00
93.7489 595.00
93.8141 573.00
93.8793 541.00
93.9445 623.00
94.0097 632.00
94.0749 627.00
94.1401 718.00
94.2053 731.00
94.2705 704.00
94.3357 621.00
94.4009 582.00
94.4661 562.00
94.5313 581.00
94.5965 627.00
94.6617 626.00
94.7269 702.00
94.7921 695.00
94.8573 615.00
94.9225 563.00
94.9877 677.00
95.0529 729.00
95.1181 777.00
95.1833 732.00
95.2485 705.00
95.3137 639.00
95.3789 580.00
95.444 601.00
95.5092 566.00
95.5744 502.00
95.6396 463.00
95.7048 441.00
95.77 453.00
95.8352 458.00
95.9004 397.00
95.9656 399.00
96.0308 379.00
96.096 408.00
96.1612 420.00
96.2264 437.00
96.2916 423.00
96.3568 462.00
96.422 433.00
96.4872 475.00
96.5524 457.00
96.6176 587.00
96.6828 676.00
96.748 820.00
96.8132 756.00
96.8784 787.00
96.9436 815.00
97.0088 849.00
97.074 801.00
97.1392 857.00
97.2044 762.00
97.2696 710.00
97.3348 686.00
97.4 641.00
97.4652 663.00
97.5304 670.00
97.5956 621.00
97.6608 649.00
97.726 600.00
97.7912 671.00
97.8564 667.00
97.9216 701.00
97.9868 778.00
98.052 724.00
98.1172 707.00
98.1824 642.00
98.2476 567.00
98.3128 551.00
98.378 513.00
98.4432 442.00
98.5084 441.00
98.5736 397.00
98.6388 376.00
98.704 366.00
98.7692 352.00
98.8344 362.00
98.8996 339.00
98.9648 390.00
99.03 406.00
99.0952 507.00
99.1604 488.00
99.2256 493.00
99.2908 581.00
99.356 604.00
99.4212 686.00
99.4864 791.00
99.5516 861.00
99.6168 737.00
99.682 719.00
99.7472 794.00
99.8124 862.00
99.8776 965.00
99.9428 897.00
100.008 894.00
100.073 993.00
100.095 1017.00