File: data/xrd_creation/results/PG_2146-1.xy
9.903433 2439.00
9.968632 2504.00
10.0338 2480.00
10.099 2560.00
10.1642 2461.00
10.2294 2400.00
10.2946 2398.00
10.3598 2353.00
10.425 2412.00
10.4902 2362.00
10.5554 2365.00
10.6206 2314.00
10.6858 2267.00
10.751 2330.00
10.8162 2263.00
10.8814 2251.00
10.9466 2239.00
11.0118 2169.00
11.077 2171.00
11.1422 2176.00
11.2074 2207.00
11.2726 2133.00
11.3378 2148.00
11.403 2160.00
11.4682 2192.00
11.5334 2056.00
11.5986 2063.00
11.6638 2004.00
11.729 2023.00
11.7942 1939.00
11.8594 2029.00
11.9246 1970.00
11.9898 1987.00
12.055 2009.00
12.1202 1991.00
12.1854 1920.00
12.2506 1948.00
12.3158 1941.00
12.381 1909.00
12.4462 1938.00
12.5114 1948.00
12.5766 1894.00
12.6418 1826.00
12.707 1802.00
12.7722 1855.00
12.8374 1873.00
12.9026 1765.00
12.9678 1871.00
13.033 1783.00
13.0982 1846.00
13.1634 1838.00
13.2286 1743.00
13.2938 1781.00
13.359 1799.00
13.4242 1676.00
13.4894 1817.00
13.5546 1794.00
13.6198 1692.00
13.685 1683.00
13.7502 1718.00
13.8154 1646.00
13.8805 1738.00
13.9457 1701.00
14.0109 1657.00
14.0761 1637.00
14.1413 1677.00
14.2065 1601.00
14.2717 1690.00
14.3369 1673.00
14.4021 1687.00
14.4673 1658.00
14.5325 1692.00
14.5977 1634.00
14.6629 1648.00
14.7281 1648.00
14.7933 1561.00
14.8585 1607.00
14.9237 1532.00
14.9889 1590.00
15.0541 1577.00
15.1193 1606.00
15.1845 1709.00
15.2497 1657.00
15.3149 1737.00
15.3801 1801.00
15.4453 1878.00
15.5105 1948.00
15.5757 2185.00
15.6409 2459.00
15.7061 2936.00
15.7713 3800.00
15.8365 5089.00
15.9017 6764.00
15.9669 8546.00
16.0321 7971.00
16.0973 5381.00
16.1625 3420.00
16.2277 2499.00
16.2929 2111.00
16.3581 1848.00
16.4233 1820.00
16.4885 1704.00
16.5537 1664.00
16.6189 1674.00
16.6841 1523.00
16.7493 1600.00
16.8145 1597.00
16.8797 1512.00
16.9449 1516.00
17.0101 1484.00
17.0753 1424.00
17.1405 1520.00
17.2057 1500.00
17.2709 1502.00
17.3361 1439.00
17.4013 1437.00
17.4665 1490.00
17.5317 1411.00
17.5969 1424.00
17.6621 1373.00
17.7273 1329.00
17.7925 1367.00
17.8577 1347.00
17.9229 1360.00
17.9881 1362.00
18.0533 1333.00
18.1185 1368.00
18.1837 1308.00
18.2489 1309.00
18.3141 1265.00
18.3793 1326.00
18.4445 1273.00
18.5097 1333.00
18.5749 1282.00
18.6401 1272.00
18.7052 1311.00
18.7704 1299.00
18.8356 1237.00
18.9008 1296.00
18.966 1333.00
19.0312 1243.00
19.0964 1204.00
19.1616 1225.00
19.2268 1226.00
19.292 1293.00
19.3572 1236.00
19.4224 1245.00
19.4876 1201.00
19.5528 1252.00
19.618 1262.00
19.6832 1177.00
19.7484 1206.00
19.8136 1249.00
19.8788 1195.00
19.944 1144.00
20.0092 1150.00
20.0744 1131.00
20.1396 1212.00
20.2048 1178.00
20.27 1129.00
20.3352 1153.00
20.4004 1136.00
20.4656 1094.00
20.5308 1178.00
20.596 1081.00
20.6612 1155.00
20.7264 1158.00
20.7916 1127.00
20.8568 1166.00
20.922 1085.00
20.9872 1135.00
21.0524 1121.00
21.1176 1161.00
21.1828 1134.00
21.248 1086.00
21.3132 1065.00
21.3784 1066.00
21.4436 1122.00
21.5088 1027.00
21.574 1076.00
21.6392 1041.00
21.7044 1023.00
21.7696 1033.00
21.8348 1068.00
21.9 1048.00
21.9652 1021.00
22.0304 1034.00
22.0956 1048.00
22.1608 1016.00
22.226 1065.00
22.2912 1109.00
22.3564 1041.00
22.4216 1058.00
22.4868 990.00
22.552 1023.00
22.6172 954.00
22.6824 1002.00
22.7476 1032.00
22.8128 970.00
22.878 977.00
22.9432 990.00
23.0084 957.00
23.0736 936.00
23.1388 1001.00
23.204 984.00
23.2692 950.00
23.3344 919.00
23.3996 976.00
23.4647 975.00
23.5299 939.00
23.5951 953.00
23.6603 975.00
23.7255 951.00
23.7907 934.00
23.8559 993.00
23.9211 935.00
23.9863 895.00
24.0515 885.00
24.1167 933.00
24.1819 891.00
24.2471 985.00
24.3123 910.00
24.3775 948.00
24.4427 926.00
24.5079 956.00
24.5731 905.00
24.6383 857.00
24.7035 877.00
24.7687 925.00
24.8339 888.00
24.8991 1002.00
24.9643 887.00
25.0295 888.00
25.0947 988.00
25.1599 938.00
25.2251 949.00
25.2903 985.00
25.3555 1107.00
25.4207 1323.00
25.4859 1792.00
25.5511 3107.00
25.6163 5098.00
25.6815 5493.00
25.7467 2952.00
25.8119 1362.00
25.8771 1114.00
25.9423 1065.00
26.0075 1060.00
26.0727 895.00
26.1379 939.00
26.2031 931.00
26.2683 870.00
26.3335 841.00
26.3987 887.00
26.4639 895.00
26.5291 860.00
26.5943 934.00
26.6595 883.00
26.7247 922.00
26.7899 919.00
26.8551 938.00
26.9203 1028.00
26.9855 991.00
27.0507 1062.00
27.1159 1188.00
27.1811 1170.00
27.2463 1488.00
27.3115 1706.00
27.3767 2324.00
27.4419 3193.00
27.5071 4776.00
27.5723 6450.00
27.6375 7022.00
27.7027 5704.00
27.7679 3872.00
27.8331 2776.00
27.8983 2315.00
27.9635 2186.00
28.0287 2356.00
28.0939 3227.00
28.1591 4636.00
28.2243 6800.00
28.2894 9093.00
28.3546 9052.00
28.4198 6630.00
28.485 3915.00
28.5502 2458.00
28.6154 1796.00
28.6806 1443.00
28.7458 1263.00
28.811 1077.00
28.8762 1040.00
28.9414 963.00
29.0066 918.00
29.0718 865.00
29.137 896.00
29.2022 901.00
29.2674 868.00
29.3326 773.00
29.3978 835.00
29.463 866.00
29.5282 785.00
29.5934 819.00
29.6586 762.00
29.7238 790.00
29.789 792.00
29.8542 761.00
29.9194 773.00
29.9846 725.00
30.0498 729.00
30.115 722.00
30.1802 740.00
30.2454 741.00
30.3106 765.00
30.3758 727.00
30.441 727.00
30.5062 731.00
30.5714 700.00
30.6366 690.00
30.7018 760.00
30.767 726.00
30.8322 760.00
30.8974 723.00
30.9626 707.00
31.0278 716.00
31.093 703.00
31.1582 711.00
31.2234 711.00
31.2886 674.00
31.3538 723.00
31.419 704.00
31.4842 722.00
31.5494 797.00
31.6146 917.00
31.6798 972.00
31.745 1204.00
31.8102 1585.00
31.8754 2042.00
31.9406 2208.00
32.0058 1940.00
32.071 1549.00
32.1362 1118.00
32.2014 967.00
32.2666 818.00
32.3318 799.00
32.397 700.00
32.4622 653.00
32.5274 672.00
32.5926 656.00
32.6578 617.00
32.723 642.00
32.7882 629.00
32.8534 687.00
32.9186 659.00
32.9838 637.00
33.0489 595.00
33.1141 575.00
33.1793 618.00
33.2445 619.00
33.3097 603.00
33.3749 626.00
33.4401 591.00
33.5053 561.00
33.5705 585.00
33.6357 596.00
33.7009 592.00
33.7661 609.00
33.8313 601.00
33.8965 579.00
33.9617 615.00
34.0269 568.00
34.0921 576.00
34.1573 588.00
34.2225 600.00
34.2877 569.00
34.3529 615.00
34.4181 534.00
34.4833 529.00
34.5485 557.00
34.6137 566.00
34.6789 574.00
34.7441 533.00
34.8093 549.00
34.8745 538.00
34.9397 529.00
35.0049 556.00
35.0701 534.00
35.1353 552.00
35.2005 552.00
35.2657 585.00
35.3309 531.00
35.3961 587.00
35.4613 604.00
35.5265 521.00
35.5917 505.00
35.6569 562.00
35.7221 539.00
35.7873 572.00
35.8525 559.00
35.9177 542.00
35.9829 600.00
36.0481 646.00
36.1133 678.00
36.1785 809.00
36.2437 973.00
36.3089 1069.00
36.3741 1053.00
36.4393 994.00
36.5045 763.00
36.5697 723.00
36.6349 620.00
36.7001 618.00
36.7653 579.00
36.8305 524.00
36.8957 561.00
36.9609 517.00
37.0261 519.00
37.0913 540.00
37.1565 580.00
37.2217 691.00
37.2869 817.00
37.3521 684.00
37.4173 597.00
37.4825 531.00
37.5477 519.00
37.6129 545.00
37.6781 506.00
37.7433 517.00
37.8085 544.00
37.8736 520.00
37.9388 615.00
38.004 728.00
38.0692 1175.00
38.1344 1593.00
38.1996 1262.00
38.2648 914.00
38.33 646.00
38.3952 539.00
38.4604 592.00
38.5256 603.00
38.5908 564.00
38.656 563.00
38.7212 538.00
38.7864 685.00
38.8516 815.00
38.9168 917.00
38.982 846.00
39.0472 721.00
39.1124 682.00
39.1776 662.00
39.2428 771.00
39.308 882.00
39.3732 1024.00
39.4384 1132.00
39.5036 1502.00
39.5688 2005.00
39.634 2952.00
39.6992 4497.00
39.7644 5743.00
39.8296 6098.00
39.8948 5293.00
39.96 3838.00
40.0252 2580.00
40.0904 1758.00
40.1556 1306.00
40.2208 1047.00
40.286 920.00
40.3512 760.00
40.4164 739.00
40.4816 635.00
40.5468 660.00
40.612 583.00
40.6772 529.00
40.7424 574.00
40.8076 534.00
40.8728 529.00
40.938 537.00
41.0032 466.00
41.0684 534.00
41.1336 503.00
41.1988 532.00
41.264 502.00
41.3292 520.00
41.3944 454.00
41.4596 468.00
41.5248 503.00
41.59 477.00
41.6552 471.00
41.7204 474.00
41.7856 506.00
41.8508 483.00
41.916 512.00
41.9812 509.00
42.0464 548.00
42.1116 556.00
42.1768 599.00
42.242 606.00
42.3072 740.00
42.3724 878.00
42.4376 1098.00
42.5028 1391.00
42.568 1510.00
42.6332 1325.00
42.6983 1170.00
42.7635 882.00
42.8287 693.00
42.8939 654.00
42.9591 607.00
43.0243 502.00
43.0895 499.00
43.1547 430.00
43.2199 485.00
43.2851 469.00
43.3503 456.00
43.4155 469.00
43.4807 428.00
43.5459 449.00
43.6111 460.00
43.6763 441.00
43.7415 442.00
43.8067 462.00
43.8719 468.00
43.9371 459.00
44.0023 489.00
44.0675 449.00
44.1327 422.00
44.1979 424.00
44.2631 462.00
44.3283 449.00
44.3935 447.00
44.4587 411.00
44.5239 434.00
44.5891 407.00
44.6543 409.00
44.7195 406.00
44.7847 420.00
44.8499 395.00
44.9151 425.00
44.9803 433.00
45.0455 402.00
45.1107 405.00
45.1759 388.00
45.2411 432.00
45.3063 409.00
45.3715 422.00
45.4367 439.00
45.5019 419.00
45.5671 389.00
45.6323 445.00
45.6975 420.00
45.7627 410.00
45.8279 449.00
45.8931 417.00
45.9583 414.00
46.0235 452.00
46.0887 459.00
46.1539 416.00
46.2191 394.00
46.2843 419.00
46.3495 419.00
46.4147 441.00
46.4799 409.00
46.5451 422.00
46.6103 408.00
46.6755 458.00
46.7407 448.00
46.8059 438.00
46.8711 457.00
46.9363 475.00
47.0015 491.00
47.0667 550.00
47.1319 593.00
47.1971 690.00
47.2623 866.00
47.3275 1123.00
47.3927 1378.00
47.4579 1377.00
47.523 1252.00
47.5882 1064.00
47.6534 836.00
47.7186 712.00
47.7838 677.00
47.849 606.00
47.9142 657.00
47.9794 667.00
48.0446 730.00
48.1098 856.00
48.175 938.00
48.2402 1329.00
48.3054 2130.00
48.3706 3152.00
48.4358 3092.00
48.501 3317.00
48.5662 3054.00
48.6314 2780.00
48.6966 2964.00
48.7618 3184.00
48.827 3544.00
48.8922 4500.00
48.9574 4991.00
49.0226 4922.00
49.0878 4096.00
49.153 3068.00
49.2182 2270.00
49.2834 1687.00
49.3486 1235.00
49.4138 1043.00
49.479 900.00
49.5442 707.00
49.6094 688.00
49.6746 633.00
49.7398 624.00
49.805 585.00
49.8702 600.00
49.9354 636.00
50.0006 654.00
50.0658 753.00
50.131 910.00
50.1962 1070.00
50.2614 1110.00
50.3266 1003.00
50.3918 894.00
50.457 694.00
50.5222 567.00
50.5874 524.00
50.6526 467.00
50.7178 454.00
50.783 437.00
50.8482 429.00
50.9134 451.00
50.9786 426.00
51.0438 429.00
51.109 383.00
51.1742 417.00
51.2394 359.00
51.3046 347.00
51.3698 358.00
51.435 380.00
51.5002 375.00
51.5654 323.00
51.6306 378.00
51.6958 374.00
51.761 336.00
51.8262 386.00
51.8914 412.00
51.9566 384.00
52.0218 360.00
52.087 358.00
52.1522 309.00
52.2174 349.00
52.2826 414.00
52.3477 378.00
52.4129 362.00
52.4781 361.00
52.5433 391.00
52.6085 354.00
52.6737 369.00
52.7389 362.00
52.8041 364.00
52.8693 366.00
52.9345 321.00
52.9997 344.00
53.0649 357.00
53.1301 354.00
53.1953 348.00
53.2605 327.00
53.3257 344.00
53.3909 399.00
53.4561 374.00
53.5213 363.00
53.5865 328.00
53.6517 391.00
53.7169 379.00
53.7821 405.00
53.8473 356.00
53.9125 372.00
53.9777 382.00
54.0429 472.00
54.1081 681.00
54.1733 1158.00
54.2385 1118.00
54.3037 847.00
54.3689 832.00
54.4341 499.00
54.4993 392.00
54.5645 393.00
54.6297 398.00
54.6949 360.00
54.7601 443.00
54.8253 377.00
54.8905 394.00
54.9557 428.00
55.0209 477.00
55.0861 455.00
55.1513 562.00
55.2165 640.00
55.2817 868.00
55.3469 1475.00
55.4121 1706.00
55.4773 1759.00
55.5425 1990.00
55.6077 1732.00
55.6729 1579.00
55.7381 1306.00
55.8033 1132.00
55.8685 843.00
55.9337 658.00
55.9989 588.00
56.0641 577.00
56.1293 537.00
56.1945 511.00
56.2597 578.00
56.3249 600.00
56.3901 665.00
56.4553 830.00
56.5205 954.00
56.5857 922.00
56.6509 907.00
56.7161 859.00
56.7813 774.00
56.8465 645.00
56.9117 585.00
56.9769 530.00
57.042 440.00
57.1073 446.00
57.1724 394.00
57.2376 381.00
57.3028 376.00
57.368 370.00
57.4332 375.00
57.4984 350.00
57.5636 414.00
57.6288 353.00
57.694 346.00
57.7592 419.00
57.8244 391.00
57.8896 443.00
57.9548 544.00
58.02 548.00
58.0852 664.00
58.1504 651.00
58.2156 663.00
58.2808 603.00
58.346 528.00
58.4112 454.00
58.4764 437.00
58.5416 422.00
58.6068 409.00
58.672 417.00
58.7372 417.00
58.8024 426.00
58.8676 415.00
58.9328 494.00
58.998 614.00
59.0632 637.00
59.1284 626.00
59.1936 669.00
59.2588 578.00
59.324 468.00
59.3892 486.00
59.4544 450.00
59.5196 380.00
59.5848 359.00
59.65 343.00
59.7152 334.00
59.7804 326.00
59.8456 345.00
59.9108 305.00
59.976 295.00
60.0412 333.00
60.1064 258.00
60.1716 283.00
60.2368 290.00
60.302 285.00
60.3672 299.00
60.4324 292.00
60.4976 305.00
60.5628 303.00
60.628 277.00
60.6932 306.00
60.7584 297.00
60.8236 294.00
60.8888 309.00
60.954 305.00
61.0192 297.00
61.0844 310.00
61.1496 323.00
61.2148 280.00
61.28 276.00
61.3452 312.00
61.4104 325.00
61.4756 299.00
61.5408 285.00
61.606 285.00
61.6712 310.00
61.7364 289.00
61.8016 320.00
61.8667 291.00
61.932 286.00
61.9971 284.00
62.0623 307.00
62.1275 291.00
62.1927 333.00
62.2579 316.00
62.3231 359.00
62.3883 459.00
62.4535 427.00
62.5187 396.00
62.5839 404.00
62.6491 348.00
62.7143 357.00
62.7795 354.00
62.8447 419.00
62.9099 584.00
62.9751 952.00
63.0403 739.00
63.1055 624.00
63.1707 638.00
63.2359 481.00
63.3011 366.00
63.3663 357.00
63.4315 378.00
63.4967 335.00
63.5619 351.00
63.6271 377.00
63.6923 378.00
63.7575 402.00
63.8227 432.00
63.8879 466.00
63.9531 566.00
64.0183 663.00
64.0835 740.00
64.1487 986.00
64.2139 1153.00
64.2791 1261.00
64.3443 1254.00
64.4095 1203.00
64.4747 1041.00
64.5399 937.00
64.6051 771.00
64.6703 650.00
64.7355 558.00
64.8007 527.00
64.8659 484.00
64.9311 426.00
64.9963 415.00
65.0615 458.00
65.1267 479.00
65.1919 497.00
65.2571 570.00
65.3223 652.00
65.3875 680.00
65.4527 665.00
65.5179 598.00
65.5831 581.00
65.6483 478.00
65.7135 471.00
65.7787 392.00
65.8439 380.00
65.9091 405.00
65.9743 413.00
66.0395 362.00
66.1047 380.00
66.1699 406.00
66.2351 420.00
66.3003 407.00
66.3655 404.00
66.4307 411.00
66.4959 423.00
66.561 381.00
66.6263 359.00
66.6915 339.00
66.7566 337.00
66.8218 337.00
66.887 320.00
66.9522 287.00
67.0174 286.00
67.0826 286.00
67.1478 261.00
67.213 283.00
67.2782 288.00
67.3434 270.00
67.4086 261.00
67.4738 316.00
67.539 271.00
67.6042 264.00
67.6694 290.00
67.7346 289.00
67.7998 284.00
67.865 269.00
67.9302 301.00
67.9954 283.00
68.0606 317.00
68.1258 291.00
68.191 295.00
68.2562 293.00
68.3214 299.00
68.3866 294.00
68.4518 296.00
68.517 297.00
68.5822 275.00
68.6474 306.00
68.7126 289.00
68.7778 336.00
68.843 301.00
68.9082 335.00
68.9734 423.00
69.0386 580.00
69.1038 494.00
69.169 428.00
69.2342 474.00
69.2994 450.00
69.3646 383.00
69.4298 361.00
69.495 421.00
69.5602 453.00
69.6254 465.00
69.6906 585.00
69.7558 653.00
69.821 818.00
69.8862 926.00
69.9514 1028.00
70.0166 1019.00
70.0818 984.00
70.147 899.00
70.2122 768.00
70.2774 680.00
70.3426 586.00
70.4078 501.00
70.473 531.00
70.5382 617.00
70.6034 677.00
70.6686 476.00
70.7338 528.00
70.799 571.00
70.8642 430.00
70.9294 425.00
70.9946 478.00
71.0598 465.00
71.125 519.00
71.1902 532.00
71.2554 531.00
71.3205 465.00
71.3858 476.00
71.451 444.00
71.5162 430.00
71.5813 382.00
71.6465 328.00
71.7117 288.00
71.7769 293.00
71.8421 313.00
71.9073 308.00
71.9725 301.00
72.0377 309.00
72.1029 283.00
72.1681 270.00
72.2333 316.00
72.2985 285.00
72.3637 270.00
72.4289 314.00
72.4941 285.00
72.5593 304.00
72.6245 281.00
72.6897 313.00
72.7549 298.00
72.8201 336.00
72.8853 370.00
72.9505 379.00
73.0157 384.00
73.0809 425.00
73.1461 381.00
73.2113 398.00
73.2765 366.00
73.3417 380.00
73.4069 327.00
73.4721 348.00
73.5373 336.00
73.6025 304.00
73.6677 274.00
73.7329 300.00
73.7981 279.00
73.8633 297.00
73.9285 317.00
73.9937 310.00
74.0589 309.00
74.1241 243.00
74.1893 274.00
74.2545 312.00
74.3197 326.00
74.3849 265.00
74.4501 290.00
74.5153 298.00
74.5805 304.00
74.6457 289.00
74.7109 270.00
74.7761 265.00
74.8413 269.00
74.9065 299.00
74.9717 316.00
75.0369 321.00
75.1021 334.00
75.1673 375.00
75.2325 456.00
75.2977 716.00
75.3629 741.00
75.4281 483.00
75.4933 524.00
75.5585 558.00
75.6237 469.00
75.6889 388.00
75.7541 407.00
75.8193 420.00
75.8845 470.00
75.9497 525.00
76.0149 613.00
76.0801 685.00
76.1452 659.00
76.2104 722.00
76.2756 771.00
76.3409 836.00
76.406 727.00
76.4712 730.00
76.5364 792.00
76.6016 774.00
76.6668 800.00
76.732 714.00
76.7972 678.00
76.8624 705.00
76.9276 609.00
76.9928 618.00
77.058 613.00
77.1232 609.00
77.1884 636.00
77.2536 726.00
77.3188 748.00
77.384 882.00
77.4492 984.00
77.5144 1068.00
77.5796 1101.00
77.6448 1180.00
77.71 1204.00
77.7752 1217.00
77.8404 1220.00
77.9056 1101.00
77.9708 1028.00
78.036 908.00
78.1012 854.00
78.1664 739.00
78.2316 697.00
78.2968 589.00
78.362 526.00
78.4272 518.00
78.4924 531.00
78.5576 487.00
78.6228 499.00
78.688 500.00
78.7532 543.00
78.8184 511.00
78.8836 471.00
78.9488 484.00
79.014 470.00
79.0792 378.00
79.1444 390.00
79.2096 376.00
79.2748 333.00
79.34 324.00
79.4052 318.00
79.4704 321.00
79.5356 290.00
79.6008 294.00
79.666 273.00
79.7312 291.00
79.7964 248.00
79.8616 292.00
79.9268 226.00
79.992 256.00
80.0572 261.00
80.1224 302.00
80.1876 241.00
80.2528 275.00
80.318 260.00
80.3832 291.00
80.4484 294.00
80.5136 280.00
80.5788 260.00
80.644 285.00
80.7092 263.00
80.7744 264.00
80.8396 273.00
80.9048 249.00
80.9699 295.00
81.0351 282.00
81.1003 232.00
81.1655 280.00
81.2307 262.00
81.2959 271.00
81.3611 244.00
81.4263 187.00
81.4915 277.00
81.5567 274.00
81.6219 273.00
81.6871 258.00
81.7523 288.00
81.8175 244.00
81.8827 278.00
81.9479 298.00
82.0131 266.00
82.0783 285.00
82.1435 312.00
82.2087 355.00
82.2739 343.00
82.3391 390.00
82.4043 485.00
82.4695 451.00
82.5347 535.00
82.5999 566.00
82.6651 611.00
82.7303 555.00
82.7955 529.00
82.8607 599.00
82.9259 647.00
82.9911 499.00
83.0563 430.00
83.1215 403.00
83.1867 443.00
83.2519 365.00
83.3171 343.00
83.3823 370.00
83.4475 386.00
83.5127 345.00
83.5779 304.00
83.6431 281.00
83.7083 294.00
83.7735 260.00
83.8387 264.00
83.9039 273.00
83.9691 243.00
84.0343 234.00
84.0995 247.00
84.1647 275.00
84.2299 264.00
84.2951 260.00
84.3603 265.00
84.4255 269.00
84.4907 256.00
84.5559 226.00
84.6211 256.00
84.6863 277.00
84.7515 239.00
84.8167 292.00
84.8819 238.00
84.9471 288.00
85.0123 296.00
85.0775 316.00
85.1427 339.00
85.2079 315.00
85.2731 348.00
85.3383 366.00
85.4035 338.00
85.4687 315.00
85.5339 299.00
85.5991 339.00
85.6643 277.00
85.7295 286.00
85.7946 295.00
85.8598 291.00
85.925 302.00
85.9903 283.00
86.0554 279.00
86.1206 272.00
86.1858 306.00
86.251 244.00
86.3162 283.00
86.3814 286.00
86.4466 284.00
86.5118 287.00
86.577 277.00
86.6422 235.00
86.7074 262.00
86.7726 247.00
86.8378 237.00
86.903 245.00
86.9682 258.00
87.0334 257.00
87.0986 247.00
87.1638 232.00
87.229 263.00
87.2942 226.00
87.3594 238.00
87.4246 272.00
87.4898 237.00
87.555 267.00
87.6202 222.00
87.6854 250.00
87.7506 262.00
87.8158 230.00
87.881 271.00
87.9462 242.00
88.0114 266.00
88.0766 258.00
88.1418 239.00
88.207 282.00
88.2722 337.00
88.3374 288.00
88.4026 333.00
88.4678 313.00
88.533 357.00
88.5982 423.00
88.6634 436.00
88.7286 463.00
88.7938 479.00
88.859 606.00
88.9242 642.00
88.9894 643.00
89.0546 647.00
89.1198 632.00
89.185 630.00
89.2502 507.00
89.3154 497.00
89.3806 497.00
89.4458 442.00
89.511 405.00
89.5762 362.00
89.6414 347.00
89.7066 348.00
89.7718 335.00
89.837 350.00
89.9022 369.00
89.9674 369.00
90.0326 351.00
90.0978 382.00
90.163 447.00
90.2282 385.00
90.2934 461.00
90.3586 453.00
90.4238 456.00
90.489 480.00
90.5542 526.00
90.6193 473.00
90.6845 473.00
90.7497 465.00
90.8149 454.00
90.8801 432.00
90.9453 412.00
91.0105 405.00
91.0757 340.00
91.1409 352.00
91.2061 376.00
91.2713 376.00
91.3365 342.00
91.4017 384.00
91.4669 364.00
91.5321 348.00
91.5973 391.00
91.6625 358.00
91.7277 392.00
91.7929 349.00
91.8581 347.00
91.9233 345.00
91.9885 328.00
92.0537 324.00
92.1189 308.00
92.1841 336.00
92.2493 317.00
92.3145 320.00
92.3797 309.00
92.4449 290.00
92.5101 334.00
92.5753 283.00
92.6405 278.00
92.7057 263.00
92.7709 262.00
92.8361 235.00
92.9013 294.00
92.9665 258.00
93.0317 272.00
93.0969 245.00
93.1621 263.00
93.2273 244.00
93.2925 231.00
93.3577 264.00
93.4229 272.00
93.4881 287.00
93.5533 264.00
93.6185 270.00
93.6837 264.00
93.7489 276.00
93.8141 305.00
93.8793 292.00
93.9445 242.00
94.0097 270.00
94.0749 257.00
94.1401 283.00
94.2053 267.00
94.2705 248.00
94.3357 313.00
94.4009 330.00
94.4661 366.00
94.5313 301.00
94.5965 306.00
94.6617 300.00
94.7269 342.00
94.7921 330.00
94.8573 302.00
94.9225 303.00
94.9877 304.00
95.0529 315.00
95.1181 346.00
95.1833 341.00
95.2485 360.00
95.3137 448.00
95.3789 483.00
95.444 504.00
95.5092 504.00
95.5744 554.00
95.6396 574.00
95.7048 642.00
95.77 695.00
95.8352 671.00
95.9004 674.00
95.9656 610.00
96.0308 631.00
96.096 537.00
96.1612 571.00
96.2264 539.00
96.2916 502.00
96.3568 520.00
96.422 464.00
96.4872 446.00
96.5524 447.00
96.6176 453.00
96.6828 475.00
96.748 464.00
96.8132 498.00
96.8784 553.00
96.9436 510.00
97.0088 545.00
97.074 550.00
97.1392 524.00
97.2044 462.00
97.2696 496.00
97.3348 466.00
97.4 414.00
97.4652 410.00
97.5304 378.00
97.5956 337.00
97.6608 389.00
97.726 314.00
97.7912 327.00
97.8564 328.00
97.9216 312.00
97.9868 309.00
98.052 280.00
98.1172 243.00
98.1824 314.00
98.2476 260.00
98.3128 285.00
98.378 292.00
98.4432 303.00
98.5084 330.00
98.5736 356.00
98.6388 323.00
98.704 315.00
98.7692 333.00
98.8344 299.00
98.8996 327.00
98.9648 300.00
99.03 289.00
99.0952 300.00
99.1604 250.00
99.2256 268.00
99.2908 292.00
99.356 275.00
99.4212 271.00
99.4864 269.00
99.5516 283.00
99.6168 270.00
99.682 291.00
99.7472 249.00
99.8124 273.00
99.8776 247.00
99.9428 269.00
100.008 277.00
100.073 303.00
100.095 310.00