File: data/xrd_creation/results/PG_2148-1.xy
9.903433 2770.00
9.968632 2667.00
10.0338 2602.00
10.099 2608.00
10.1642 2568.00
10.2294 2527.00
10.2946 2378.00
10.3598 2510.00
10.425 2506.00
10.4902 2482.00
10.5554 2458.00
10.6206 2426.00
10.6858 2489.00
10.751 2417.00
10.8162 2461.00
10.8814 2433.00
10.9466 2352.00
11.0118 2259.00
11.077 2261.00
11.1422 2265.00
11.2074 2267.00
11.2726 2293.00
11.3378 2281.00
11.403 2213.00
11.4682 2245.00
11.5334 2241.00
11.5986 2167.00
11.6638 2186.00
11.729 2242.00
11.7942 2207.00
11.8594 2111.00
11.9246 2108.00
11.9898 2086.00
12.055 2176.00
12.1202 2096.00
12.1854 2119.00
12.2506 1996.00
12.3158 1980.00
12.381 1888.00
12.4462 2051.00
12.5114 2060.00
12.5766 1960.00
12.6418 1970.00
12.707 2013.00
12.7722 2017.00
12.8374 1955.00
12.9026 1856.00
12.9678 1976.00
13.033 1926.00
13.0982 1896.00
13.1634 1902.00
13.2286 1837.00
13.2938 1985.00
13.359 1799.00
13.4242 1852.00
13.4894 1849.00
13.5546 1820.00
13.6198 1798.00
13.685 1838.00
13.7502 1776.00
13.8154 1791.00
13.8805 1758.00
13.9457 1749.00
14.0109 1791.00
14.0761 1673.00
14.1413 1703.00
14.2065 1774.00
14.2717 1729.00
14.3369 1702.00
14.4021 1749.00
14.4673 1627.00
14.5325 1795.00
14.5977 1677.00
14.6629 1751.00
14.7281 1634.00
14.7933 1730.00
14.8585 1764.00
14.9237 1781.00
14.9889 1811.00
15.0541 1706.00
15.1193 1759.00
15.1845 1689.00
15.2497 1814.00
15.3149 1740.00
15.3801 1887.00
15.4453 1981.00
15.5105 2219.00
15.5757 2368.00
15.6409 2904.00
15.7061 3612.00
15.7713 4479.00
15.8365 5241.00
15.9017 7148.00
15.9669 9344.00
16.0321 10166.00
16.0973 7890.00
16.1625 4838.00
16.2277 3212.00
16.2929 2471.00
16.3581 2174.00
16.4233 2016.00
16.4885 1800.00
16.5537 1827.00
16.6189 1722.00
16.6841 1741.00
16.7493 1629.00
16.8145 1695.00
16.8797 1621.00
16.9449 1651.00
17.0101 1578.00
17.0753 1615.00
17.1405 1613.00
17.2057 1651.00
17.2709 1576.00
17.3361 1555.00
17.4013 1560.00
17.4665 1464.00
17.5317 1452.00
17.5969 1514.00
17.6621 1471.00
17.7273 1497.00
17.7925 1486.00
17.8577 1507.00
17.9229 1490.00
17.9881 1316.00
18.0533 1404.00
18.1185 1454.00
18.1837 1404.00
18.2489 1476.00
18.3141 1474.00
18.3793 1365.00
18.4445 1379.00
18.5097 1446.00
18.5749 1476.00
18.6401 1451.00
18.7052 1344.00
18.7704 1460.00
18.8356 1280.00
18.9008 1310.00
18.966 1349.00
19.0312 1348.00
19.0964 1240.00
19.1616 1332.00
19.2268 1330.00
19.292 1351.00
19.3572 1255.00
19.4224 1284.00
19.4876 1260.00
19.5528 1310.00
19.618 1301.00
19.6832 1317.00
19.7484 1270.00
19.8136 1342.00
19.8788 1311.00
19.944 1348.00
20.0092 1397.00
20.0744 1359.00
20.1396 1367.00
20.2048 1338.00
20.27 1386.00
20.3352 1430.00
20.4004 1493.00
20.4656 1796.00
20.5308 2317.00
20.596 3292.00
20.6612 4331.00
20.7264 3753.00
20.7916 2122.00
20.8568 1484.00
20.922 1362.00
20.9872 1331.00
21.0524 1231.00
21.1176 1211.00
21.1828 1206.00
21.248 1231.00
21.3132 1238.00
21.3784 1225.00
21.4436 1223.00
21.5088 1216.00
21.574 1202.00
21.6392 1197.00
21.7044 1185.00
21.7696 1223.00
21.8348 1175.00
21.9 1327.00
21.9652 1484.00
22.0304 1689.00
22.0956 2067.00
22.1608 1817.00
22.226 1431.00
22.2912 1189.00
22.3564 1204.00
22.4216 1122.00
22.4868 1110.00
22.552 1113.00
22.6172 1069.00
22.6824 1036.00
22.7476 1116.00
22.8128 1121.00
22.878 1121.00
22.9432 1044.00
23.0084 1107.00
23.0736 1110.00
23.1388 1116.00
23.204 1076.00
23.2692 1061.00
23.3344 1078.00
23.3996 1024.00
23.4647 1024.00
23.5299 1016.00
23.5951 1084.00
23.6603 1051.00
23.7255 1063.00
23.7907 1076.00
23.8559 1011.00
23.9211 1011.00
23.9863 1003.00
24.0515 1020.00
24.1167 1024.00
24.1819 1034.00
24.2471 1055.00
24.3123 1024.00
24.3775 989.00
24.4427 1035.00
24.5079 980.00
24.5731 1025.00
24.6383 1036.00
24.7035 986.00
24.7687 993.00
24.8339 994.00
24.8991 1024.00
24.9643 987.00
25.0295 966.00
25.0947 980.00
25.1599 1005.00
25.2251 965.00
25.2903 927.00
25.3555 965.00
25.4207 998.00
25.4859 1019.00
25.5511 1022.00
25.6163 952.00
25.6815 1011.00
25.7467 986.00
25.8119 979.00
25.8771 1013.00
25.9423 1084.00
26.0075 1053.00
26.0727 1004.00
26.1379 955.00
26.2031 958.00
26.2683 1016.00
26.3335 1124.00
26.3987 1388.00
26.4639 1824.00
26.5291 2364.00
26.5943 1803.00
26.6595 1235.00
26.7247 1066.00
26.7899 1119.00
26.8551 1060.00
26.9203 1149.00
26.9855 1138.00
27.0507 1126.00
27.1159 1221.00
27.1811 1290.00
27.2463 1446.00
27.3115 1679.00
27.3767 2196.00
27.4419 3118.00
27.5071 4503.00
27.5723 6455.00
27.6375 7950.00
27.7027 7193.00
27.7679 5223.00
27.8331 3486.00
27.8983 2656.00
27.9635 2404.00
28.0287 2453.00
28.0939 3025.00
28.1591 4184.00
28.2243 6277.00
28.2894 8748.00
28.3546 10207.00
28.4198 8425.00
28.485 5554.00
28.5502 3315.00
28.6154 2278.00
28.6806 1786.00
28.7458 1448.00
28.811 1305.00
28.8762 1140.00
28.9414 1161.00
29.0066 1020.00
29.0718 1042.00
29.137 980.00
29.2022 1005.00
29.2674 952.00
29.3326 943.00
29.3978 967.00
29.463 962.00
29.5282 907.00
29.5934 901.00
29.6586 880.00
29.7238 914.00
29.789 863.00
29.8542 828.00
29.9194 840.00
29.9846 843.00
30.0498 809.00
30.115 892.00
30.1802 874.00
30.2454 830.00
30.3106 837.00
30.3758 803.00
30.441 834.00
30.5062 866.00
30.5714 805.00
30.6366 864.00
30.7018 826.00
30.767 863.00
30.8322 891.00
30.8974 846.00
30.9626 831.00
31.0278 857.00
31.093 897.00
31.1582 986.00
31.2234 1149.00
31.2886 1511.00
31.3538 1998.00
31.419 2231.00
31.4842 1591.00
31.5494 1169.00
31.6146 1030.00
31.6798 1103.00
31.745 1363.00
31.8102 1487.00
31.8754 2055.00
31.9406 2334.00
32.0058 2404.00
32.071 1877.00
32.1362 1514.00
32.2014 1178.00
32.2666 970.00
32.3318 921.00
32.397 837.00
32.4622 838.00
32.5274 806.00
32.5926 925.00
32.6578 951.00
32.723 1220.00
32.7882 1251.00
32.8534 994.00
32.9186 815.00
32.9838 760.00
33.0489 797.00
33.1141 703.00
33.1793 712.00
33.2445 688.00
33.3097 708.00
33.3749 755.00
33.4401 707.00
33.5053 764.00
33.5705 764.00
33.6357 829.00
33.7009 911.00
33.7661 830.00
33.8313 763.00
33.8965 621.00
33.9617 694.00
34.0269 680.00
34.0921 689.00
34.1573 693.00
34.2225 650.00
34.2877 667.00
34.3529 675.00
34.4181 646.00
34.4833 665.00
34.5485 811.00
34.6137 969.00
34.6789 1192.00
34.7441 974.00
34.8093 868.00
34.8745 696.00
34.9397 673.00
35.0049 679.00
35.0701 613.00
35.1353 646.00
35.2005 651.00
35.2657 596.00
35.3309 662.00
35.3961 649.00
35.4613 653.00
35.5265 675.00
35.5917 642.00
35.6569 631.00
35.7221 673.00
35.7873 650.00
35.8525 658.00
35.9177 709.00
35.9829 666.00
36.0481 704.00
36.1133 750.00
36.1785 898.00
36.2437 980.00
36.3089 1103.00
36.3741 1243.00
36.4393 1218.00
36.5045 1003.00
36.5697 862.00
36.6349 700.00
36.7001 685.00
36.7653 674.00
36.8305 626.00
36.8957 598.00
36.9609 592.00
37.0261 585.00
37.0913 593.00
37.1565 585.00
37.2217 608.00
37.2869 617.00
37.3521 616.00
37.4173 612.00
37.4825 570.00
37.5477 584.00
37.6129 561.00
37.6781 617.00
37.7433 630.00
37.8085 642.00
37.8736 593.00
37.9388 586.00
38.004 570.00
38.0692 578.00
38.1344 590.00
38.1996 578.00
38.2648 591.00
38.33 533.00
38.3952 594.00
38.4604 657.00
38.5256 611.00
38.5908 637.00
38.656 608.00
38.7212 660.00
38.7864 667.00
38.8516 641.00
38.9168 645.00
38.982 687.00
39.0472 687.00
39.1124 735.00
39.1776 763.00
39.2428 817.00
39.308 922.00
39.3732 1050.00
39.4384 1169.00
39.5036 1442.00
39.5688 1872.00
39.634 2706.00
39.6992 4024.00
39.7644 5489.00
39.8296 6491.00
39.8948 6207.00
39.96 4816.00
40.0252 3362.00
40.0904 2265.00
40.1556 1730.00
40.2208 1268.00
40.286 1083.00
40.3512 901.00
40.4164 835.00
40.4816 761.00
40.5468 728.00
40.612 677.00
40.6772 657.00
40.7424 634.00
40.8076 624.00
40.8728 613.00
40.938 617.00
41.0032 663.00
41.0684 607.00
41.1336 625.00
41.1988 626.00
41.264 611.00
41.3292 645.00
41.3944 597.00
41.4596 668.00
41.5248 759.00
41.59 954.00
41.6552 998.00
41.7204 888.00
41.7856 763.00
41.8508 646.00
41.916 597.00
41.9812 643.00
42.0464 642.00
42.1116 677.00
42.1768 658.00
42.242 758.00
42.3072 928.00
42.3724 1093.00
42.4376 1275.00
42.5028 1490.00
42.568 1603.00
42.6332 1601.00
42.6983 1423.00
42.7635 1110.00
42.8287 898.00
42.8939 782.00
42.9591 704.00
43.0243 626.00
43.0895 629.00
43.1547 607.00
43.2199 599.00
43.2851 562.00
43.3503 570.00
43.4155 540.00
43.4807 552.00
43.5459 498.00
43.6111 526.00
43.6763 569.00
43.7415 516.00
43.8067 544.00
43.8719 528.00
43.9371 537.00
44.0023 508.00
44.0675 469.00
44.1327 528.00
44.1979 523.00
44.2631 509.00
44.3283 495.00
44.3935 523.00
44.4587 514.00
44.5239 530.00
44.5891 532.00
44.6543 527.00
44.7195 525.00
44.7847 477.00
44.8499 527.00
44.9151 492.00
44.9803 513.00
45.0455 477.00
45.1107 519.00
45.1759 513.00
45.2411 531.00
45.3063 533.00
45.3715 547.00
45.4367 481.00
45.5019 515.00
45.5671 534.00
45.6323 549.00
45.6975 587.00
45.7627 703.00
45.8279 712.00
45.8931 706.00
45.9583 660.00
46.0235 565.00
46.0887 527.00
46.1539 520.00
46.2191 532.00
46.2843 525.00
46.3495 502.00
46.4147 515.00
46.4799 496.00
46.5451 493.00
46.6103 534.00
46.6755 494.00
46.7407 514.00
46.8059 542.00
46.8711 558.00
46.9363 578.00
47.0015 611.00
47.0667 595.00
47.1319 649.00
47.1971 775.00
47.2623 856.00
47.3275 1124.00
47.3927 1371.00
47.4579 1557.00
47.523 1518.00
47.5882 1338.00
47.6534 1281.00
47.7186 1208.00
47.7838 1000.00
47.849 861.00
47.9142 764.00
47.9794 780.00
48.0446 827.00
48.1098 961.00
48.175 1204.00
48.2402 1358.00
48.3054 1422.00
48.3706 1671.00
48.4358 2033.00
48.501 2636.00
48.5662 2895.00
48.6314 3006.00
48.6966 2965.00
48.7618 3130.00
48.827 3476.00
48.8922 4375.00
48.9574 5091.00
49.0226 5309.00
49.0878 4735.00
49.153 4009.00
49.2182 2989.00
49.2834 2204.00
49.3486 1699.00
49.4138 1223.00
49.479 1035.00
49.5442 926.00
49.6094 786.00
49.6746 734.00
49.7398 724.00
49.805 724.00
49.8702 728.00
49.9354 765.00
50.0006 734.00
50.0658 746.00
50.131 870.00
50.1962 1043.00
50.2614 1120.00
50.3266 1073.00
50.3918 1046.00
50.457 890.00
50.5222 735.00
50.5874 659.00
50.6526 613.00
50.7178 540.00
50.783 532.00
50.8482 546.00
50.9134 526.00
50.9786 515.00
51.0438 500.00
51.109 479.00
51.1742 511.00
51.2394 507.00
51.3046 489.00
51.3698 459.00
51.435 530.00
51.5002 693.00
51.5654 884.00
51.6306 674.00
51.6958 658.00
51.761 588.00
51.8262 534.00
51.8914 517.00
51.9566 497.00
52.0218 462.00
52.087 490.00
52.1522 477.00
52.2174 487.00
52.2826 579.00
52.3477 615.00
52.4129 556.00
52.4781 546.00
52.5433 526.00
52.6085 452.00
52.6737 460.00
52.7389 403.00
52.8041 471.00
52.8693 440.00
52.9345 494.00
52.9997 422.00
53.0649 425.00
53.1301 458.00
53.1953 424.00
53.2605 403.00
53.3257 439.00
53.3909 412.00
53.4561 476.00
53.5213 481.00
53.5865 479.00
53.6517 476.00
53.7169 416.00
53.7821 464.00
53.8473 439.00
53.9125 406.00
53.9777 470.00
54.0429 456.00
54.1081 487.00
54.1733 470.00
54.2385 515.00
54.3037 457.00
54.3689 409.00
54.4341 458.00
54.4993 448.00
54.5645 409.00
54.6297 487.00
54.6949 450.00
54.7601 449.00
54.8253 487.00
54.8905 447.00
54.9557 477.00
55.0209 501.00
55.0861 503.00
55.1513 504.00
55.2165 577.00
55.2817 657.00
55.3469 746.00
55.4121 877.00
55.4773 1171.00
55.5425 1510.00
55.6077 1582.00
55.6729 1605.00
55.7381 1496.00
55.8033 1240.00
55.8685 993.00
55.9337 868.00
55.9989 948.00
56.0641 766.00
56.1293 744.00
56.1945 662.00
56.2597 683.00
56.3249 667.00
56.3901 735.00
56.4553 849.00
56.5205 1071.00
56.5857 1097.00
56.6509 1163.00
56.7161 1023.00
56.7813 921.00
56.8465 802.00
56.9117 717.00
56.9769 588.00
57.042 544.00
57.1073 530.00
57.1724 500.00
57.2376 462.00
57.3028 468.00
57.368 440.00
57.4332 410.00
57.4984 439.00
57.5636 453.00
57.6288 482.00
57.694 494.00
57.7592 465.00
57.8244 486.00
57.8896 516.00
57.9548 542.00
58.02 664.00
58.0852 672.00
58.1504 717.00
58.2156 694.00
58.2808 638.00
58.346 664.00
58.4112 580.00
58.4764 537.00
58.5416 513.00
58.6068 494.00
58.672 550.00
58.7372 550.00
58.8024 610.00
58.8676 579.00
58.9328 658.00
58.998 731.00
59.0632 716.00
59.1284 851.00
59.1936 782.00
59.2588 739.00
59.324 812.00
59.3892 685.00
59.4544 617.00
59.5196 562.00
59.5848 541.00
59.65 444.00
59.7152 415.00
59.7804 443.00
59.8456 411.00
59.9108 400.00
59.976 398.00
60.0412 370.00
60.1064 425.00
60.1716 386.00
60.2368 393.00
60.302 436.00
60.3672 427.00
60.4324 428.00
60.4976 431.00
60.5628 388.00
60.628 404.00
60.6932 404.00
60.7584 401.00
60.8236 361.00
60.8888 351.00
60.954 411.00
61.0192 402.00
61.0844 386.00
61.1496 386.00
61.2148 373.00
61.28 399.00
61.3452 468.00
61.4104 543.00
61.4756 523.00
61.5408 495.00
61.606 473.00
61.6712 429.00
61.7364 422.00
61.8016 397.00
61.8667 382.00
61.932 383.00
61.9971 380.00
62.0623 366.00
62.1275 381.00
62.1927 390.00
62.2579 388.00
62.3231 441.00
62.3883 560.00
62.4535 634.00
62.5187 529.00
62.5839 522.00
62.6491 490.00
62.7143 396.00
62.7795 372.00
62.8447 385.00
62.9099 384.00
62.9751 387.00
63.0403 387.00
63.1055 388.00
63.1707 400.00
63.2359 377.00
63.3011 410.00
63.3663 437.00
63.4315 367.00
63.4967 425.00
63.5619 419.00
63.6271 380.00
63.6923 412.00
63.7575 494.00
63.8227 486.00
63.8879 524.00
63.9531 603.00
64.0183 670.00
64.0835 812.00
64.1487 970.00
64.2139 1220.00
64.2791 1375.00
64.3443 1444.00
64.4095 1310.00
64.4747 1223.00
64.5399 1106.00
64.6051 962.00
64.6703 850.00
64.7355 730.00
64.8007 648.00
64.8659 673.00
64.9311 626.00
64.9963 579.00
65.0615 590.00
65.1267 570.00
65.1919 632.00
65.2571 695.00
65.3223 706.00
65.3875 791.00
65.4527 760.00
65.5179 785.00
65.5831 684.00
65.6483 600.00
65.7135 557.00
65.7787 475.00
65.8439 480.00
65.9091 452.00
65.9743 435.00
66.0395 477.00
66.1047 509.00
66.1699 505.00
66.2351 519.00
66.3003 593.00
66.3655 613.00
66.4307 584.00
66.4959 564.00
66.561 506.00
66.6263 477.00
66.6915 443.00
66.7566 410.00
66.8218 405.00
66.887 396.00
66.9522 366.00
67.0174 385.00
67.0826 356.00
67.1478 370.00
67.213 337.00
67.2782 366.00
67.3434 356.00
67.4086 389.00
67.4738 369.00
67.539 357.00
67.6042 365.00
67.6694 372.00
67.7346 389.00
67.7998 371.00
67.865 364.00
67.9302 359.00
67.9954 407.00
68.0606 409.00
68.1258 441.00
68.191 414.00
68.2562 442.00
68.3214 405.00
68.3866 385.00
68.4518 382.00
68.517 383.00
68.5822 371.00
68.6474 390.00
68.7126 387.00
68.7778 417.00
68.843 404.00
68.9082 404.00
68.9734 426.00
69.0386 438.00
69.1038 463.00
69.169 464.00
69.2342 469.00
69.2994 482.00
69.3646 444.00
69.4298 504.00
69.495 459.00
69.5602 518.00
69.6254 535.00
69.6906 604.00
69.7558 734.00
69.821 784.00
69.8862 971.00
69.9514 1185.00
70.0166 1126.00
70.0818 1084.00
70.147 1109.00
70.2122 945.00
70.2774 792.00
70.3426 742.00
70.4078 694.00
70.473 685.00
70.5382 618.00
70.6034 562.00
70.6686 522.00
70.7338 551.00
70.799 518.00
70.8642 530.00
70.9294 523.00
70.9946 542.00
71.0598 578.00
71.125 593.00
71.1902 640.00
71.2554 632.00
71.3205 622.00
71.3858 624.00
71.451 554.00
71.5162 473.00
71.5813 448.00
71.6465 416.00
71.7117 446.00
71.7769 392.00
71.8421 392.00
71.9073 395.00
71.9725 410.00
72.0377 393.00
72.1029 398.00
72.1681 400.00
72.2333 407.00
72.2985 419.00
72.3637 408.00
72.4289 349.00
72.4941 400.00
72.5593 461.00
72.6245 488.00
72.6897 403.00
72.7549 440.00
72.8201 472.00
72.8853 495.00
72.9505 526.00
73.0157 559.00
73.0809 535.00
73.1461 489.00
73.2113 513.00
73.2765 494.00
73.3417 498.00
73.4069 414.00
73.4721 393.00
73.5373 361.00
73.6025 393.00
73.6677 398.00
73.7329 386.00
73.7981 363.00
73.8633 398.00
73.9285 394.00
73.9937 371.00
74.0589 370.00
74.1241 361.00
74.1893 339.00
74.2545 397.00
74.3197 352.00
74.3849 386.00
74.4501 400.00
74.5153 354.00
74.5805 356.00
74.6457 399.00
74.7109 404.00
74.7761 467.00
74.8413 493.00
74.9065 441.00
74.9717 413.00
75.0369 440.00
75.1021 393.00
75.1673 397.00
75.2325 357.00
75.2977 388.00
75.3629 376.00
75.4281 416.00
75.4933 407.00
75.5585 423.00
75.6237 379.00
75.6889 451.00
75.7541 480.00
75.8193 444.00
75.8845 508.00
75.9497 537.00
76.0149 649.00
76.0801 709.00
76.1452 758.00
76.2104 737.00
76.2756 772.00
76.3409 842.00
76.406 743.00
76.4712 740.00
76.5364 909.00
76.6016 868.00
76.6668 834.00
76.732 786.00
76.7972 785.00
76.8624 735.00
76.9276 661.00
76.9928 733.00
77.058 684.00
77.1232 713.00
77.1884 743.00
77.2536 750.00
77.3188 897.00
77.384 926.00
77.4492 1023.00
77.5144 1124.00
77.5796 1174.00
77.6448 1271.00
77.71 1317.00
77.7752 1404.00
77.8404 1361.00
77.9056 1233.00
77.9708 1133.00
78.036 1075.00
78.1012 936.00
78.1664 877.00
78.2316 829.00
78.2968 709.00
78.362 610.00
78.4272 721.00
78.4924 656.00
78.5576 643.00
78.6228 638.00
78.688 590.00
78.7532 636.00
78.8184 678.00
78.8836 637.00
78.9488 569.00
79.014 514.00
79.0792 527.00
79.1444 511.00
79.2096 438.00
79.2748 450.00
79.34 390.00
79.4052 387.00
79.4704 391.00
79.5356 376.00
79.6008 398.00
79.666 348.00
79.7312 389.00
79.7964 400.00
79.8616 375.00
79.9268 390.00
79.992 392.00
80.0572 345.00
80.1224 346.00
80.1876 398.00
80.2528 355.00
80.318 372.00
80.3832 345.00
80.4484 332.00
80.5136 363.00
80.5788 351.00
80.644 329.00
80.7092 346.00
80.7744 323.00
80.8396 362.00
80.9048 344.00
80.9699 343.00
81.0351 346.00
81.1003 382.00
81.1655 324.00
81.2307 377.00
81.2959 327.00
81.3611 310.00
81.4263 323.00
81.4915 352.00
81.5567 349.00
81.6219 400.00
81.6871 340.00
81.7523 349.00
81.8175 327.00
81.8827 386.00
81.9479 353.00
82.0131 375.00
82.0783 382.00
82.1435 401.00
82.2087 409.00
82.2739 388.00
82.3391 452.00
82.4043 526.00
82.4695 575.00
82.5347 601.00
82.5999 632.00
82.6651 611.00
82.7303 585.00
82.7955 577.00
82.8607 555.00
82.9259 517.00
82.9911 502.00
83.0563 459.00
83.1215 423.00
83.1867 402.00
83.2519 379.00
83.3171 342.00
83.3823 417.00
83.4475 378.00
83.5127 372.00
83.5779 335.00
83.6431 327.00
83.7083 332.00
83.7735 315.00
83.8387 346.00
83.9039 339.00
83.9691 353.00
84.0343 318.00
84.0995 359.00
84.1647 333.00
84.2299 350.00
84.2951 362.00
84.3603 344.00
84.4255 323.00
84.4907 350.00
84.5559 364.00
84.6211 349.00
84.6863 338.00
84.7515 325.00
84.8167 362.00
84.8819 346.00
84.9471 409.00
85.0123 404.00
85.0775 366.00
85.1427 408.00
85.2079 398.00
85.2731 430.00
85.3383 431.00
85.4035 424.00
85.4687 430.00
85.5339 420.00
85.5991 394.00
85.6643 410.00
85.7295 408.00
85.7946 376.00
85.8598 362.00
85.925 396.00
85.9903 380.00
86.0554 400.00
86.1206 401.00
86.1858 355.00
86.251 395.00
86.3162 391.00
86.3814 338.00
86.4466 343.00
86.5118 318.00
86.577 364.00
86.6422 330.00
86.7074 311.00
86.7726 336.00
86.8378 306.00
86.903 406.00
86.9682 366.00
87.0334 354.00
87.0986 378.00
87.1638 350.00
87.229 354.00
87.2942 357.00
87.3594 364.00
87.4246 353.00
87.4898 367.00
87.555 337.00
87.6202 332.00
87.6854 325.00
87.7506 323.00
87.8158 307.00
87.881 320.00
87.9462 334.00
88.0114 338.00
88.0766 384.00
88.1418 311.00
88.207 376.00
88.2722 386.00
88.3374 351.00
88.4026 374.00
88.4678 397.00
88.533 387.00
88.5982 440.00
88.6634 545.00
88.7286 559.00
88.7938 672.00
88.859 657.00
88.9242 685.00
88.9894 706.00
89.0546 753.00
89.1198 711.00
89.185 699.00
89.2502 611.00
89.3154 592.00
89.3806 558.00
89.4458 498.00
89.511 471.00
89.5762 463.00
89.6414 432.00
89.7066 423.00
89.7718 410.00
89.837 454.00
89.9022 424.00
89.9674 427.00
90.0326 432.00
90.0978 472.00
90.163 489.00
90.2282 524.00
90.2934 535.00
90.3586 606.00
90.4238 605.00
90.489 528.00
90.5542 610.00
90.6193 629.00
90.6845 597.00
90.7497 607.00
90.8149 552.00
90.8801 548.00
90.9453 535.00
91.0105 506.00
91.0757 488.00
91.1409 489.00
91.2061 469.00
91.2713 442.00
91.3365 448.00
91.4017 459.00
91.4669 424.00
91.5321 449.00
91.5973 465.00
91.6625 498.00
91.7277 478.00
91.7929 429.00
91.8581 433.00
91.9233 415.00
91.9885 399.00
92.0537 392.00
92.1189 403.00
92.1841 402.00
92.2493 388.00
92.3145 394.00
92.3797 371.00
92.4449 380.00
92.5101 370.00
92.5753 354.00
92.6405 386.00
92.7057 368.00
92.7709 360.00
92.8361 359.00
92.9013 346.00
92.9665 353.00
93.0317 336.00
93.0969 356.00
93.1621 391.00
93.2273 334.00
93.2925 400.00
93.3577 384.00
93.4229 326.00
93.4881 354.00
93.5533 352.00
93.6185 331.00
93.6837 391.00
93.7489 376.00
93.8141 351.00
93.8793 326.00
93.9445 336.00
94.0097 355.00
94.0749 396.00
94.1401 339.00
94.2053 354.00
94.2705 327.00
94.3357 323.00
94.4009 358.00
94.4661 351.00
94.5313 356.00
94.5965 360.00
94.6617 340.00
94.7269 364.00
94.7921 349.00
94.8573 355.00
94.9225 340.00
94.9877 382.00
95.0529 388.00
95.1181 426.00
95.1833 388.00
95.2485 421.00
95.3137 445.00
95.3789 545.00
95.444 526.00
95.5092 553.00
95.5744 576.00
95.6396 608.00
95.7048 649.00
95.77 720.00
95.8352 735.00
95.9004 735.00
95.9656 757.00
96.0308 703.00
96.096 681.00
96.1612 697.00
96.2264 647.00
96.2916 586.00
96.3568 529.00
96.422 544.00
96.4872 517.00
96.5524 522.00
96.6176 514.00
96.6828 519.00
96.748 579.00
96.8132 585.00
96.8784 608.00
96.9436 638.00
97.0088 616.00
97.074 581.00
97.1392 660.00
97.2044 597.00
97.2696 590.00
97.3348 551.00
97.4 531.00
97.4652 508.00
97.5304 482.00
97.5956 478.00
97.6608 444.00
97.726 410.00
97.7912 410.00
97.8564 386.00
97.9216 385.00
97.9868 383.00
98.052 376.00
98.1172 387.00
98.1824 372.00
98.2476 339.00
98.3128 338.00
98.378 323.00
98.4432 365.00
98.5084 336.00
98.5736 371.00
98.6388 355.00
98.704 351.00
98.7692 350.00
98.8344 356.00
98.8996 374.00
98.9648 383.00
99.03 367.00
99.0952 364.00
99.1604 401.00
99.2256 366.00
99.2908 349.00
99.356 338.00
99.4212 340.00
99.4864 369.00
99.5516 353.00
99.6168 367.00
99.682 364.00
99.7472 345.00
99.8124 382.00
99.8776 386.00
99.9428 400.00
100.008 371.00
100.073 355.00
100.095 357.00