File: data/xrd_creation/results/PG_2241-1.xy
9.903433 2713.00
9.968632 2649.00
10.0338 2643.00
10.099 2632.00
10.1642 2615.00
10.2294 2538.00
10.2946 2512.00
10.3598 2537.00
10.425 2467.00
10.4902 2443.00
10.5554 2546.00
10.6206 2478.00
10.6858 2457.00
10.751 2445.00
10.8162 2403.00
10.8814 2364.00
10.9466 2417.00
11.0118 2407.00
11.077 2287.00
11.1422 2341.00
11.2074 2257.00
11.2726 2235.00
11.3378 2201.00
11.403 2267.00
11.4682 2255.00
11.5334 2129.00
11.5986 2174.00
11.6638 2126.00
11.729 2114.00
11.7942 2156.00
11.8594 2202.00
11.9246 2152.00
11.9898 2130.00
12.055 2096.00
12.1202 2083.00
12.1854 2081.00
12.2506 2099.00
12.3158 1978.00
12.381 2063.00
12.4462 2033.00
12.5114 2068.00
12.5766 1984.00
12.6418 1976.00
12.707 1924.00
12.7722 1936.00
12.8374 1970.00
12.9026 1913.00
12.9678 1934.00
13.033 1951.00
13.0982 1935.00
13.1634 1958.00
13.2286 1963.00
13.2938 1981.00
13.359 1906.00
13.4242 1908.00
13.4894 1920.00
13.5546 1895.00
13.6198 1989.00
13.685 2087.00
13.7502 2189.00
13.8154 2439.00
13.8805 2893.00
13.9457 3767.00
14.0109 5234.00
14.0761 6616.00
14.1413 3917.00
14.2065 2086.00
14.2717 1935.00
14.3369 1914.00
14.4021 1879.00
14.4673 1776.00
14.5325 1823.00
14.5977 1833.00
14.6629 1757.00
14.7281 1721.00
14.7933 1711.00
14.8585 1738.00
14.9237 1728.00
14.9889 1761.00
15.0541 1714.00
15.1193 1706.00
15.1845 1730.00
15.2497 1682.00
15.3149 1602.00
15.3801 1689.00
15.4453 1730.00
15.5105 1641.00
15.5757 1738.00
15.6409 1692.00
15.7061 1587.00
15.7713 1676.00
15.8365 1654.00
15.9017 1702.00
15.9669 1615.00
16.0321 1567.00
16.0973 1573.00
16.1625 1564.00
16.2277 1597.00
16.2929 1623.00
16.3581 1604.00
16.4233 1629.00
16.4885 1621.00
16.5537 1566.00
16.6189 1533.00
16.6841 1588.00
16.7493 1506.00
16.8145 1565.00
16.8797 1547.00
16.9449 1436.00
17.0101 1539.00
17.0753 1535.00
17.1405 1547.00
17.2057 1517.00
17.2709 1478.00
17.3361 1570.00
17.4013 1457.00
17.4665 1551.00
17.5317 1437.00
17.5969 1459.00
17.6621 1455.00
17.7273 1517.00
17.7925 1456.00
17.8577 1517.00
17.9229 1409.00
17.9881 1462.00
18.0533 1388.00
18.1185 1433.00
18.1837 1412.00
18.2489 1442.00
18.3141 1447.00
18.3793 1442.00
18.4445 1359.00
18.5097 1345.00
18.5749 1299.00
18.6401 1395.00
18.7052 1384.00
18.7704 1380.00
18.8356 1404.00
18.9008 1417.00
18.966 1416.00
19.0312 1343.00
19.0964 1374.00
19.1616 1375.00
19.2268 1355.00
19.292 1356.00
19.3572 1340.00
19.4224 1368.00
19.4876 1395.00
19.5528 1424.00
19.618 1438.00
19.6832 1545.00
19.7484 1565.00
19.8136 1381.00
19.8788 1305.00
19.944 1325.00
20.0092 1281.00
20.0744 1215.00
20.1396 1266.00
20.2048 1238.00
20.27 1218.00
20.3352 1179.00
20.4004 1239.00
20.4656 1203.00
20.5308 1281.00
20.596 1143.00
20.6612 1213.00
20.7264 1255.00
20.7916 1179.00
20.8568 1243.00
20.922 1225.00
20.9872 1219.00
21.0524 1249.00
21.1176 1278.00
21.1828 1198.00
21.248 1187.00
21.3132 1191.00
21.3784 1197.00
21.4436 1346.00
21.5088 1282.00
21.574 1601.00
21.6392 1943.00
21.7044 1730.00
21.7696 1377.00
21.8348 1141.00
21.9 1166.00
21.9652 1201.00
22.0304 1117.00
22.0956 1197.00
22.1608 1110.00
22.226 1224.00
22.2912 1148.00
22.3564 1183.00
22.4216 1117.00
22.4868 1175.00
22.552 1189.00
22.6172 1159.00
22.6824 1076.00
22.7476 1151.00
22.8128 1115.00
22.878 1191.00
22.9432 1164.00
23.0084 1157.00
23.0736 1103.00
23.1388 1128.00
23.204 1134.00
23.2692 1110.00
23.3344 1116.00
23.3996 1093.00
23.4647 1091.00
23.5299 1077.00
23.5951 1113.00
23.6603 1116.00
23.7255 1068.00
23.7907 1180.00
23.8559 1131.00
23.9211 1092.00
23.9863 1127.00
24.0515 1087.00
24.1167 1035.00
24.1819 1037.00
24.2471 1039.00
24.3123 1019.00
24.3775 1058.00
24.4427 1014.00
24.5079 1092.00
24.5731 1054.00
24.6383 1019.00
24.7035 1057.00
24.7687 1008.00
24.8339 989.00
24.8991 1019.00
24.9643 1035.00
25.0295 1022.00
25.0947 1022.00
25.1599 1076.00
25.2251 1097.00
25.2903 1137.00
25.3555 1029.00
25.4207 1049.00
25.4859 1009.00
25.5511 1023.00
25.6163 1081.00
25.6815 1131.00
25.7467 1250.00
25.8119 1388.00
25.8771 1234.00
25.9423 1100.00
26.0075 1052.00
26.0727 1029.00
26.1379 1002.00
26.2031 957.00
26.2683 988.00
26.3335 1008.00
26.3987 998.00
26.4639 970.00
26.5291 999.00
26.5943 992.00
26.6595 993.00
26.7247 1060.00
26.7899 1062.00
26.8551 1072.00
26.9203 973.00
26.9855 1042.00
27.0507 1183.00
27.1159 1115.00
27.1811 1150.00
27.2463 1244.00
27.3115 1198.00
27.3767 1339.00
27.4419 1416.00
27.5071 1524.00
27.5723 1751.00
27.6375 1919.00
27.7027 2453.00
27.7679 3804.00
27.8331 7224.00
27.8983 17420.00
27.9635 38578.00
28.0287 50308.00
28.0939 25325.00
28.1591 6337.00
28.2243 3019.00
28.2894 2327.00
28.3546 2032.00
28.4198 1645.00
28.485 1537.00
28.5502 1610.00
28.6154 2002.00
28.6806 2690.00
28.7458 2141.00
28.811 1650.00
28.8762 1514.00
28.9414 1572.00
29.0066 1346.00
29.0718 1130.00
29.137 1065.00
29.2022 1120.00
29.2674 1080.00
29.3326 1000.00
29.3978 976.00
29.463 964.00
29.5282 938.00
29.5934 1018.00
29.6586 1018.00
29.7238 1087.00
29.789 1096.00
29.8542 1121.00
29.9194 945.00
29.9846 960.00
30.0498 977.00
30.115 961.00
30.1802 928.00
30.2454 914.00
30.3106 869.00
30.3758 911.00
30.441 935.00
30.5062 927.00
30.5714 894.00
30.6366 927.00
30.7018 981.00
30.767 995.00
30.8322 1173.00
30.8974 1282.00
30.9626 1318.00
31.0278 1133.00
31.093 1007.00
31.1582 966.00
31.2234 920.00
31.2886 904.00
31.3538 972.00
31.419 865.00
31.4842 915.00
31.5494 892.00
31.6146 877.00
31.6798 956.00
31.745 929.00
31.8102 1092.00
31.8754 1141.00
31.9406 1297.00
32.0058 1659.00
32.071 2027.00
32.1362 2329.00
32.2014 2836.00
32.2666 5005.00
32.3318 11396.00
32.397 19292.00
32.4622 12245.00
32.5274 5082.00
32.5926 1974.00
32.6578 1481.00
32.723 1234.00
32.7882 1132.00
32.8534 1009.00
32.9186 975.00
32.9838 1001.00
33.0489 979.00
33.1141 890.00
33.1793 839.00
33.2445 786.00
33.3097 887.00
33.3749 888.00
33.4401 829.00
33.5053 805.00
33.5705 737.00
33.6357 786.00
33.7009 777.00
33.7661 829.00
33.8313 827.00
33.8965 762.00
33.9617 759.00
34.0269 775.00
34.0921 833.00
34.1573 933.00
34.2225 956.00
34.2877 856.00
34.3529 950.00
34.4181 980.00
34.4833 923.00
34.5485 819.00
34.6137 775.00
34.6789 787.00
34.7441 769.00
34.8093 781.00
34.8745 745.00
34.9397 749.00
35.0049 755.00
35.0701 822.00
35.1353 939.00
35.2005 1298.00
35.2657 2230.00
35.3309 4514.00
35.3961 4263.00
35.4613 2947.00
35.5265 1152.00
35.5917 796.00
35.6569 762.00
35.7221 748.00
35.7873 665.00
35.8525 736.00
35.9177 666.00
35.9829 652.00
36.0481 686.00
36.1133 672.00
36.1785 684.00
36.2437 694.00
36.3089 823.00
36.3741 1247.00
36.4393 1036.00
36.5045 904.00
36.5697 682.00
36.6349 663.00
36.7001 658.00
36.7653 690.00
36.8305 805.00
36.8957 757.00
36.9609 692.00
37.0261 680.00
37.0913 670.00
37.1565 718.00
37.2217 738.00
37.2869 907.00
37.3521 764.00
37.4173 686.00
37.4825 630.00
37.5477 592.00
37.6129 605.00
37.6781 554.00
37.7433 605.00
37.8085 572.00
37.8736 603.00
37.9388 600.00
38.004 594.00
38.0692 644.00
38.1344 586.00
38.1996 598.00
38.2648 596.00
38.33 615.00
38.3952 662.00
38.4604 620.00
38.5256 589.00
38.5908 562.00
38.656 538.00
38.7212 565.00
38.7864 568.00
38.8516 568.00
38.9168 543.00
38.982 576.00
39.0472 520.00
39.1124 552.00
39.1776 576.00
39.2428 525.00
39.308 553.00
39.3732 536.00
39.4384 562.00
39.5036 561.00
39.5688 515.00
39.634 590.00
39.6992 623.00
39.7644 848.00
39.8296 1266.00
39.8948 1489.00
39.96 1202.00
40.0252 835.00
40.0904 649.00
40.1556 595.00
40.2208 668.00
40.286 626.00
40.3512 579.00
40.4164 515.00
40.4816 553.00
40.5468 525.00
40.612 542.00
40.6772 528.00
40.7424 571.00
40.8076 597.00
40.8728 510.00
40.938 508.00
41.0032 521.00
41.0684 549.00
41.1336 545.00
41.1988 566.00
41.264 567.00
41.3292 545.00
41.3944 544.00
41.4596 544.00
41.5248 542.00
41.59 513.00
41.6552 570.00
41.7204 553.00
41.7856 512.00
41.8508 515.00
41.916 525.00
41.9812 548.00
42.0464 541.00
42.1116 546.00
42.1768 637.00
42.242 768.00
42.3072 1171.00
42.3724 1874.00
42.4376 1235.00
42.5028 1130.00
42.568 635.00
42.6332 545.00
42.6983 499.00
42.7635 523.00
42.8287 522.00
42.8939 512.00
42.9591 544.00
43.0243 538.00
43.0895 514.00
43.1547 581.00
43.2199 574.00
43.2851 496.00
43.3503 471.00
43.4155 491.00
43.4807 526.00
43.5459 503.00
43.6111 482.00
43.6763 548.00
43.7415 524.00
43.8067 519.00
43.8719 515.00
43.9371 509.00
44.0023 512.00
44.0675 500.00
44.1327 466.00
44.1979 539.00
44.2631 603.00
44.3283 570.00
44.3935 580.00
44.4587 516.00
44.5239 625.00
44.5891 625.00
44.6543 617.00
44.7195 581.00
44.7847 559.00
44.8499 563.00
44.9151 542.00
44.9803 531.00
45.0455 532.00
45.1107 534.00
45.1759 573.00
45.2411 509.00
45.3063 558.00
45.3715 560.00
45.4367 565.00
45.5019 579.00
45.5671 585.00
45.6323 590.00
45.6975 587.00
45.7627 681.00
45.8279 730.00
45.8931 860.00
45.9583 942.00
46.0235 1042.00
46.0887 1515.00
46.1539 2718.00
46.2191 6645.00
46.2843 17566.00
46.3495 11655.00
46.4147 10642.00
46.4799 4286.00
46.5451 1707.00
46.6103 1215.00
46.6755 868.00
46.7407 824.00
46.8059 697.00
46.8711 685.00
46.9363 569.00
47.0015 594.00
47.0667 557.00
47.1319 551.00
47.1971 531.00
47.2623 634.00
47.3275 774.00
47.3927 665.00
47.4579 653.00
47.523 577.00
47.5882 567.00
47.6534 522.00
47.7186 518.00
47.7838 531.00
47.849 543.00
47.9142 536.00
47.9794 500.00
48.0446 520.00
48.1098 513.00
48.175 520.00
48.2402 521.00
48.3054 550.00
48.3706 540.00
48.4358 689.00
48.501 1072.00
48.5662 1109.00
48.6314 834.00
48.6966 731.00
48.7618 510.00
48.827 534.00
48.8922 547.00
48.9574 575.00
49.0226 608.00
49.0878 585.00
49.153 644.00
49.2182 658.00
49.2834 646.00
49.3486 502.00
49.4138 597.00
49.479 461.00
49.5442 470.00
49.6094 495.00
49.6746 437.00
49.7398 447.00
49.805 504.00
49.8702 526.00
49.9354 531.00
50.0006 531.00
50.0658 536.00
50.131 476.00
50.1962 488.00
50.2614 495.00
50.3266 502.00
50.3918 551.00
50.457 540.00
50.5222 525.00
50.5874 502.00
50.6526 529.00
50.7178 574.00
50.783 718.00
50.8482 693.00
50.9134 732.00
50.9786 637.00
51.0438 535.00
51.109 521.00
51.1742 454.00
51.2394 441.00
51.3046 456.00
51.3698 461.00
51.435 428.00
51.5002 474.00
51.5654 417.00
51.6306 453.00
51.6958 437.00
51.761 437.00
51.8262 430.00
51.8914 458.00
51.9566 440.00
52.0218 439.00
52.087 422.00
52.1522 423.00
52.2174 391.00
52.2826 424.00
52.3477 456.00
52.4129 444.00
52.4781 453.00
52.5433 460.00
52.6085 400.00
52.6737 462.00
52.7389 492.00
52.8041 460.00
52.8693 495.00
52.9345 506.00
52.9997 476.00
53.0649 492.00
53.1301 453.00
53.1953 491.00
53.2605 501.00
53.3257 509.00
53.3909 411.00
53.4561 484.00
53.5213 494.00
53.5865 478.00
53.6517 506.00
53.7169 499.00
53.7821 482.00
53.8473 496.00
53.9125 489.00
53.9777 527.00
54.0429 540.00
54.1081 584.00
54.1733 604.00
54.2385 616.00
54.3037 644.00
54.3689 748.00
54.4341 851.00
54.4993 906.00
54.5645 1208.00
54.6297 1555.00
54.6949 2790.00
54.7601 7717.00
54.8253 17549.00
54.8905 8279.00
54.9557 9305.00
55.0209 5403.00
55.0861 2013.00
55.1513 1266.00
55.2165 1023.00
55.2817 854.00
55.3469 733.00
55.4121 728.00
55.4773 642.00
55.5425 560.00
55.6077 580.00
55.6729 522.00
55.7381 520.00
55.8033 488.00
55.8685 478.00
55.9337 517.00
55.9989 541.00
56.0641 510.00
56.1293 500.00
56.1945 568.00
56.2597 518.00
56.3249 515.00
56.3901 461.00
56.4553 461.00
56.5205 543.00
56.5857 495.00
56.6509 466.00
56.7161 485.00
56.7813 568.00
56.8465 523.00
56.9117 554.00
56.9769 602.00
57.042 653.00
57.1073 630.00
57.1724 701.00
57.2376 800.00
57.3028 913.00
57.368 1565.00
57.4332 4146.00
57.4984 3964.00
57.5636 2228.00
57.6288 3006.00
57.694 1204.00
57.7592 813.00
57.8244 674.00
57.8896 599.00
57.9548 598.00
58.02 604.00
58.0852 556.00
58.1504 462.00
58.2156 547.00
58.2808 485.00
58.346 484.00
58.4112 487.00
58.4764 459.00
58.5416 483.00
58.6068 469.00
58.672 490.00
58.7372 482.00
58.8024 466.00
58.8676 554.00
58.9328 606.00
58.998 638.00
59.0632 640.00
59.1284 655.00
59.1936 760.00
59.2588 963.00
59.324 1655.00
59.3892 3519.00
59.4544 1740.00
59.5196 1812.00
59.5848 1705.00
59.65 824.00
59.7152 645.00
59.7804 524.00
59.8456 509.00
59.9108 478.00
59.976 499.00
60.0412 468.00
60.1064 491.00
60.1716 499.00
60.2368 460.00
60.302 447.00
60.3672 419.00
60.4324 399.00
60.4976 390.00
60.5628 453.00
60.628 380.00
60.6932 421.00
60.7584 399.00
60.8236 374.00
60.8888 419.00
60.954 471.00
61.0192 427.00
61.0844 456.00
61.1496 521.00
61.2148 463.00
61.28 448.00
61.3452 458.00
61.4104 451.00
61.4756 425.00
61.5408 433.00
61.606 414.00
61.6712 407.00
61.7364 413.00
61.8016 396.00
61.8667 398.00
61.932 396.00
61.9971 368.00
62.0623 357.00
62.1275 397.00
62.1927 419.00
62.2579 395.00
62.3231 396.00
62.3883 383.00
62.4535 379.00
62.5187 418.00
62.5839 449.00
62.6491 403.00
62.7143 412.00
62.7795 374.00
62.8447 389.00
62.9099 407.00
62.9751 360.00
63.0403 374.00
63.1055 391.00
63.1707 373.00
63.2359 367.00
63.3011 389.00
63.3663 376.00
63.4315 364.00
63.4967 445.00
63.5619 429.00
63.6271 407.00
63.6923 433.00
63.7575 434.00
63.8227 382.00
63.8879 395.00
63.9531 420.00
64.0183 427.00
64.0835 476.00
64.1487 516.00
64.2139 577.00
64.2791 904.00
64.3443 1993.00
64.4095 1247.00
64.4747 888.00
64.5399 1304.00
64.6051 700.00
64.6703 505.00
64.7355 460.00
64.8007 457.00
64.8659 377.00
64.9311 415.00
64.9963 372.00
65.0615 377.00
65.1267 387.00
65.1919 390.00
65.2571 376.00
65.3223 398.00
65.3875 380.00
65.4527 358.00
65.5179 375.00
65.5831 329.00
65.6483 386.00
65.7135 391.00
65.7787 389.00
65.8439 392.00
65.9091 380.00
65.9743 408.00
66.0395 404.00
66.1047 414.00
66.1699 397.00
66.2351 379.00
66.3003 380.00
66.3655 389.00
66.4307 358.00
66.4959 369.00
66.561 360.00
66.6263 387.00
66.6915 362.00
66.7566 382.00
66.8218 388.00
66.887 478.00
66.9522 465.00
67.0174 464.00
67.0826 495.00
67.1478 519.00
67.213 678.00
67.2782 1081.00
67.3434 2161.00
67.4086 1386.00
67.4738 1031.00
67.539 1438.00
67.6042 835.00
67.6694 596.00
67.7346 450.00
67.7998 425.00
67.865 405.00
67.9302 413.00
67.9954 398.00
68.0606 376.00
68.1258 371.00
68.191 366.00
68.2562 375.00
68.3214 398.00
68.3866 375.00
68.4518 386.00
68.517 363.00
68.5822 402.00
68.6474 392.00
68.7126 410.00
68.7778 441.00
68.843 411.00
68.9082 452.00
68.9734 543.00
69.0386 901.00
69.1038 1952.00
69.169 1417.00
69.2342 926.00
69.2994 1247.00
69.3646 945.00
69.4298 533.00
69.495 413.00
69.5602 442.00
69.6254 434.00
69.6906 436.00
69.7558 419.00
69.821 389.00
69.8862 373.00
69.9514 369.00
70.0166 352.00
70.0818 367.00
70.147 346.00
70.2122 337.00
70.2774 362.00
70.3426 314.00
70.4078 352.00
70.473 363.00
70.5382 306.00
70.6034 308.00
70.6686 292.00
70.7338 346.00
70.799 373.00
70.8642 334.00
70.9294 348.00
70.9946 355.00
71.0598 363.00
71.125 365.00
71.1902 386.00
71.2554 372.00
71.3205 335.00
71.3858 313.00
71.451 360.00
71.5162 342.00
71.5813 374.00
71.6465 403.00
71.7117 371.00
71.7769 342.00
71.8421 423.00
71.9073 457.00
71.9725 563.00
72.0377 647.00
72.1029 483.00
72.1681 453.00
72.2333 529.00
72.2985 413.00
72.3637 334.00
72.4289 372.00
72.4941 377.00
72.5593 388.00
72.6245 315.00
72.6897 374.00
72.7549 346.00
72.8201 397.00
72.8853 363.00
72.9505 364.00
73.0157 337.00
73.0809 335.00
73.1461 398.00
73.2113 361.00
73.2765 324.00
73.3417 328.00
73.4069 396.00
73.4721 387.00
73.5373 414.00
73.6025 445.00
73.6677 539.00
73.7329 820.00
73.7981 638.00
73.8633 576.00
73.9285 703.00
73.9937 656.00
74.0589 641.00
74.1241 768.00
74.1893 1295.00
74.2545 3059.00
74.3197 5026.00
74.3849 1992.00
74.4501 1736.00
74.5153 2834.00
74.5805 1608.00
74.6457 843.00
74.7109 601.00
74.7761 538.00
74.8413 473.00
74.9065 470.00
74.9717 445.00
75.0369 403.00
75.1021 404.00
75.1673 383.00
75.2325 393.00
75.2977 397.00
75.3629 405.00
75.4281 402.00
75.4933 350.00
75.5585 367.00
75.6237 360.00
75.6889 392.00
75.7541 388.00
75.8193 377.00
75.8845 390.00
75.9497 398.00
76.0149 429.00
76.0801 427.00
76.1452 477.00
76.2104 577.00
76.2756 551.00
76.3409 600.00
76.406 836.00
76.4712 1520.00
76.5364 3635.00
76.6016 3193.00
76.6668 1447.00
76.732 1752.00
76.7972 2400.00
76.8624 1176.00
76.9276 756.00
76.9928 547.00
77.058 511.00
77.1232 456.00
77.1884 449.00
77.2536 376.00
77.3188 385.00
77.384 401.00
77.4492 356.00
77.5144 368.00
77.5796 394.00
77.6448 399.00
77.71 385.00
77.7752 403.00
77.8404 361.00
77.9056 411.00
77.9708 408.00
78.036 488.00
78.1012 447.00
78.1664 710.00
78.2316 1171.00
78.2968 814.00
78.362 576.00
78.4272 668.00
78.4924 761.00
78.5576 488.00
78.6228 423.00
78.688 379.00
78.7532 458.00
78.8184 470.00
78.8836 390.00
78.9488 399.00
79.014 417.00
79.0792 417.00
79.1444 363.00
79.2096 318.00
79.2748 362.00
79.34 321.00
79.4052 363.00
79.4704 342.00
79.5356 326.00
79.6008 341.00
79.666 321.00
79.7312 313.00
79.7964 327.00
79.8616 281.00
79.9268 345.00
79.992 314.00
80.0572 325.00
80.1224 312.00
80.1876 374.00
80.2528 300.00
80.318 331.00
80.3832 337.00
80.4484 293.00
80.5136 322.00
80.5788 312.00
80.644 324.00
80.7092 376.00
80.7744 352.00
80.8396 351.00
80.9048 370.00
80.9699 364.00
81.0351 353.00
81.1003 353.00
81.1655 381.00
81.2307 339.00
81.2959 347.00
81.3611 329.00
81.4263 368.00
81.4915 352.00
81.5567 370.00
81.6219 346.00
81.6871 437.00
81.7523 370.00
81.8175 368.00
81.8827 385.00
81.9479 391.00
82.0131 350.00
82.0783 332.00
82.1435 381.00
82.2087 366.00
82.2739 376.00
82.3391 363.00
82.4043 318.00
82.4695 382.00
82.5347 388.00
82.5999 532.00
82.6651 826.00
82.7303 608.00
82.7955 490.00
82.8607 462.00
82.9259 593.00
82.9911 469.00
83.0563 354.00
83.1215 381.00
83.1867 309.00
83.2519 324.00
83.3171 319.00
83.3823 328.00
83.4475 343.00
83.5127 296.00
83.5779 343.00
83.6431 312.00
83.7083 312.00
83.7735 327.00
83.8387 286.00
83.9039 338.00
83.9691 339.00
84.0343 345.00
84.0995 326.00
84.1647 332.00
84.2299 346.00
84.2951 370.00
84.3603 323.00
84.4255 336.00
84.4907 343.00
84.5559 315.00
84.6211 367.00
84.6863 327.00
84.7515 341.00
84.8167 345.00
84.8819 381.00
84.9471 369.00
85.0123 411.00
85.0775 409.00
85.1427 447.00
85.2079 528.00
85.2731 677.00
85.3383 1130.00
85.4035 2453.00
85.4687 1712.00
85.5339 876.00
85.5991 841.00
85.6643 1342.00
85.7295 1076.00
85.7946 626.00
85.8598 491.00
85.925 420.00
85.9903 364.00
86.0554 320.00
86.1206 364.00
86.1858 331.00
86.251 356.00
86.3162 355.00
86.3814 351.00
86.4466 373.00
86.5118 386.00
86.577 339.00
86.6422 369.00
86.7074 363.00
86.7726 376.00
86.8378 351.00
86.903 430.00
86.9682 490.00
87.0334 819.00
87.0986 699.00
87.1638 465.00
87.229 413.00
87.2942 521.00
87.3594 567.00
87.4246 398.00
87.4898 348.00
87.555 350.00
87.6202 337.00
87.6854 322.00
87.7506 330.00
87.8158 346.00
87.881 330.00
87.9462 303.00
88.0114 328.00
88.0766 319.00
88.1418 319.00
88.207 290.00
88.2722 334.00
88.3374 332.00
88.4026 338.00
88.4678 313.00
88.533 315.00
88.5982 297.00
88.6634 299.00
88.7286 290.00
88.7938 369.00
88.859 361.00
88.9242 289.00
88.9894 331.00
89.0546 310.00
89.1198 315.00
89.185 317.00
89.2502 307.00
89.3154 310.00
89.3806 335.00
89.4458 306.00
89.511 332.00
89.5762 332.00
89.6414 301.00
89.7066 365.00
89.7718 419.00
89.837 366.00
89.9022 362.00
89.9674 350.00
90.0326 381.00
90.0978 349.00
90.163 304.00
90.2282 352.00
90.2934 358.00
90.3586 336.00
90.4238 349.00
90.489 324.00
90.5542 307.00
90.6193 372.00
90.6845 339.00
90.7497 325.00
90.8149 357.00
90.8801 339.00
90.9453 359.00
91.0105 415.00
91.0757 382.00
91.1409 446.00
91.2061 482.00
91.2713 565.00
91.3365 895.00
91.4017 1805.00
91.4669 1568.00
91.5321 856.00
91.5973 796.00
91.6625 1002.00
91.7277 1359.00
91.7929 994.00
91.8581 1069.00
91.9233 1941.00
91.9885 2774.00
92.0537 1364.00
92.1189 950.00
92.1841 1054.00
92.2493 1668.00
92.3145 1250.00
92.3797 703.00
92.4449 555.00
92.5101 501.00
92.5753 457.00
92.6405 383.00
92.7057 384.00
92.7709 355.00
92.8361 392.00
92.9013 376.00
92.9665 344.00
93.0317 350.00
93.0969 310.00
93.1621 343.00
93.2273 348.00
93.2925 321.00
93.3577 287.00
93.4229 308.00
93.4881 376.00
93.5533 330.00
93.6185 329.00
93.6837 311.00
93.7489 314.00
93.8141 307.00
93.8793 322.00
93.9445 307.00
94.0097 336.00
94.0749 312.00
94.1401 344.00
94.2053 288.00
94.2705 343.00
94.3357 328.00
94.4009 343.00
94.4661 320.00
94.5313 291.00
94.5965 319.00
94.6617 324.00
94.7269 361.00
94.7921 329.00
94.8573 300.00
94.9225 299.00
94.9877 288.00
95.0529 294.00
95.1181 296.00
95.1833 304.00
95.2485 314.00
95.3137 376.00
95.3789 361.00
95.444 353.00
95.5092 297.00
95.5744 380.00
95.6396 372.00
95.7048 469.00
95.77 637.00
95.8352 685.00
95.9004 454.00
95.9656 408.00
96.0308 454.00
96.096 539.00
96.1612 529.00
96.2264 391.00
96.2916 359.00
96.3568 389.00
96.422 346.00
96.4872 320.00
96.5524 319.00
96.6176 344.00
96.6828 331.00
96.748 333.00
96.8132 319.00
96.8784 301.00
96.9436 301.00
97.0088 306.00
97.074 324.00
97.1392 340.00
97.2044 303.00
97.2696 334.00
97.3348 267.00
97.4 317.00
97.4652 299.00
97.5304 304.00
97.5956 297.00
97.6608 286.00
97.726 283.00
97.7912 265.00
97.8564 296.00
97.9216 290.00
97.9868 297.00
98.052 293.00
98.1172 280.00
98.1824 326.00
98.2476 298.00
98.3128 315.00
98.378 299.00
98.4432 271.00
98.5084 334.00
98.5736 308.00
98.6388 315.00
98.704 322.00
98.7692 287.00
98.8344 304.00
98.8996 337.00
98.9648 329.00
99.03 326.00
99.0952 347.00
99.1604 336.00
99.2256 302.00
99.2908 307.00
99.356 318.00
99.4212 317.00
99.4864 302.00
99.5516 305.00
99.6168 338.00
99.682 343.00
99.7472 314.00
99.8124 290.00
99.8776 294.00
99.9428 343.00
100.008 327.00
100.073 409.00
100.095 480.00