File: data/xrd_creation/results/PG_2451-1.xy
9.903433 2522.00
9.968632 2459.00
10.0338 2568.00
10.099 2555.00
10.1642 2404.00
10.2294 2438.00
10.2946 2521.00
10.3598 2461.00
10.425 2337.00
10.4902 2365.00
10.5554 2394.00
10.6206 2244.00
10.6858 2398.00
10.751 2382.00
10.8162 2218.00
10.8814 2268.00
10.9466 2156.00
11.0118 2260.00
11.077 2244.00
11.1422 2197.00
11.2074 2130.00
11.2726 2158.00
11.3378 2151.00
11.403 2110.00
11.4682 2093.00
11.5334 2094.00
11.5986 2011.00
11.6638 2044.00
11.729 1954.00
11.7942 2097.00
11.8594 2058.00
11.9246 2071.00
11.9898 1965.00
12.055 2067.00
12.1202 1963.00
12.1854 1914.00
12.2506 1986.00
12.3158 1996.00
12.381 1876.00
12.4462 1872.00
12.5114 1910.00
12.5766 1798.00
12.6418 1850.00
12.707 1807.00
12.7722 1848.00
12.8374 1853.00
12.9026 1873.00
12.9678 1830.00
13.033 1805.00
13.0982 1809.00
13.1634 1793.00
13.2286 1870.00
13.2938 1709.00
13.359 1735.00
13.4242 1777.00
13.4894 1702.00
13.5546 1684.00
13.6198 1642.00
13.685 1697.00
13.7502 1661.00
13.8154 1665.00
13.8805 1632.00
13.9457 1688.00
14.0109 1592.00
14.0761 1614.00
14.1413 1658.00
14.2065 1540.00
14.2717 1580.00
14.3369 1609.00
14.4021 1596.00
14.4673 1665.00
14.5325 1597.00
14.5977 1669.00
14.6629 1582.00
14.7281 1604.00
14.7933 1638.00
14.8585 1655.00
14.9237 1610.00
14.9889 1625.00
15.0541 1504.00
15.1193 1484.00
15.1845 1554.00
15.2497 1515.00
15.3149 1548.00
15.3801 1585.00
15.4453 1512.00
15.5105 1461.00
15.5757 1489.00
15.6409 1555.00
15.7061 1565.00
15.7713 1481.00
15.8365 1490.00
15.9017 1493.00
15.9669 1504.00
16.0321 1432.00
16.0973 1397.00
16.1625 1475.00
16.2277 1458.00
16.2929 1458.00
16.3581 1478.00
16.4233 1421.00
16.4885 1353.00
16.5537 1458.00
16.6189 1567.00
16.6841 1388.00
16.7493 1356.00
16.8145 1390.00
16.8797 1383.00
16.9449 1373.00
17.0101 1365.00
17.0753 1408.00
17.1405 1357.00
17.2057 1364.00
17.2709 1390.00
17.3361 1381.00
17.4013 1383.00
17.4665 1352.00
17.5317 1331.00
17.5969 1342.00
17.6621 1309.00
17.7273 1354.00
17.7925 1310.00
17.8577 1291.00
17.9229 1310.00
17.9881 1316.00
18.0533 1300.00
18.1185 1278.00
18.1837 1302.00
18.2489 1328.00
18.3141 1275.00
18.3793 1264.00
18.4445 1274.00
18.5097 1158.00
18.5749 1257.00
18.6401 1309.00
18.7052 1209.00
18.7704 1208.00
18.8356 1241.00
18.9008 1237.00
18.966 1176.00
19.0312 1254.00
19.0964 1233.00
19.1616 1203.00
19.2268 1232.00
19.292 1212.00
19.3572 1207.00
19.4224 1225.00
19.4876 1163.00
19.5528 1142.00
19.618 1209.00
19.6832 1171.00
19.7484 1146.00
19.8136 1112.00
19.8788 1174.00
19.944 1186.00
20.0092 1125.00
20.0744 1142.00
20.1396 1148.00
20.2048 1075.00
20.27 1207.00
20.3352 1167.00
20.4004 1103.00
20.4656 1114.00
20.5308 1134.00
20.596 1125.00
20.6612 1132.00
20.7264 1147.00
20.7916 1125.00
20.8568 1146.00
20.922 1125.00
20.9872 1118.00
21.0524 1240.00
21.1176 1170.00
21.1828 1199.00
21.248 1251.00
21.3132 1367.00
21.3784 1518.00
21.4436 1771.00
21.5088 2212.00
21.574 2571.00
21.6392 3142.00
21.7044 3105.00
21.7696 2570.00
21.8348 2017.00
21.9 1586.00
21.9652 1452.00
22.0304 1247.00
22.0956 1220.00
22.1608 1183.00
22.226 1154.00
22.2912 1118.00
22.3564 1130.00
22.4216 1057.00
22.4868 1054.00
22.552 1014.00
22.6172 1084.00
22.6824 992.00
22.7476 974.00
22.8128 1026.00
22.878 986.00
22.9432 1007.00
23.0084 1005.00
23.0736 1034.00
23.1388 1025.00
23.204 1018.00
23.2692 1005.00
23.3344 1054.00
23.3996 1080.00
23.4647 1136.00
23.5299 1133.00
23.5951 1307.00
23.6603 1303.00
23.7255 1396.00
23.7907 1358.00
23.8559 1240.00
23.9211 1205.00
23.9863 997.00
24.0515 1040.00
24.1167 973.00
24.1819 966.00
24.2471 936.00
24.3123 1002.00
24.3775 983.00
24.4427 897.00
24.5079 955.00
24.5731 956.00
24.6383 1003.00
24.7035 930.00
24.7687 935.00
24.8339 867.00
24.8991 904.00
24.9643 895.00
25.0295 839.00
25.0947 849.00
25.1599 883.00
25.2251 878.00
25.2903 899.00
25.3555 966.00
25.4207 898.00
25.4859 914.00
25.5511 839.00
25.6163 900.00
25.6815 904.00
25.7467 865.00
25.8119 851.00
25.8771 915.00
25.9423 858.00
26.0075 847.00
26.0727 817.00
26.1379 889.00
26.2031 850.00
26.2683 855.00
26.3335 881.00
26.3987 845.00
26.4639 819.00
26.5291 880.00
26.5943 806.00
26.6595 896.00
26.7247 879.00
26.7899 827.00
26.8551 852.00
26.9203 835.00
26.9855 891.00
27.0507 770.00
27.1159 852.00
27.1811 831.00
27.2463 869.00
27.3115 859.00
27.3767 843.00
27.4419 785.00
27.5071 837.00
27.5723 837.00
27.6375 778.00
27.7027 827.00
27.7679 804.00
27.8331 859.00
27.8983 829.00
27.9635 852.00
28.0287 794.00
28.0939 790.00
28.1591 806.00
28.2243 847.00
28.2894 804.00
28.3546 832.00
28.4198 804.00
28.485 853.00
28.5502 822.00
28.6154 838.00
28.6806 835.00
28.7458 862.00
28.811 924.00
28.8762 854.00
28.9414 917.00
29.0066 985.00
29.0718 886.00
29.137 899.00
29.2022 826.00
29.2674 904.00
29.3326 916.00
29.3978 925.00
29.463 985.00
29.5282 974.00
29.5934 1114.00
29.6586 1180.00
29.7238 1280.00
29.789 1257.00
29.8542 1233.00
29.9194 1244.00
29.9846 1097.00
30.0498 1114.00
30.115 1102.00
30.1802 1054.00
30.2454 1085.00
30.3106 1166.00
30.3758 1237.00
30.441 1342.00
30.5062 1336.00
30.5714 1507.00
30.6366 1681.00
30.7018 1968.00
30.767 2231.00
30.8322 2405.00
30.8974 2524.00
30.9626 2525.00
31.0278 2329.00
31.093 2079.00
31.1582 2025.00
31.2234 1785.00
31.2886 1834.00
31.3538 1826.00
31.419 1794.00
31.4842 1871.00
31.5494 2088.00
31.6146 2347.00
31.6798 2770.00
31.745 3288.00
31.8102 4664.00
31.8754 7230.00
31.9406 12826.00
32.0058 23402.00
32.071 39509.00
32.1362 46899.00
32.2014 28114.00
32.2666 11555.00
32.3318 4745.00
32.397 3165.00
32.4622 2460.00
32.5274 2009.00
32.5926 1592.00
32.6578 1518.00
32.723 1376.00
32.7882 1363.00
32.8534 1367.00
32.9186 1326.00
32.9838 1349.00
33.0489 1234.00
33.1141 1131.00
33.1793 1090.00
33.2445 1083.00
33.3097 1049.00
33.3749 1075.00
33.4401 1059.00
33.5053 1081.00
33.5705 1120.00
33.6357 1177.00
33.7009 1203.00
33.7661 1205.00
33.8313 1383.00
33.8965 1438.00
33.9617 1377.00
34.0269 1402.00
34.0921 1462.00
34.1573 1622.00
34.2225 1904.00
34.2877 2172.00
34.3529 2390.00
34.4181 2779.00
34.4833 3440.00
34.5485 5484.00
34.6137 9888.00
34.6789 19099.00
34.7441 31778.00
34.8093 30131.00
34.8745 16690.00
34.9397 5594.00
35.0049 2623.00
35.0701 1945.00
35.1353 1681.00
35.2005 1477.00
35.2657 1371.00
35.3309 1407.00
35.3961 1373.00
35.4613 1504.00
35.5265 1457.00
35.5917 1513.00
35.6569 1407.00
35.7221 1468.00
35.7873 1497.00
35.8525 1500.00
35.9177 1749.00
35.9829 1886.00
36.0481 2243.00
36.1133 2676.00
36.1785 3270.00
36.2437 4197.00
36.3089 6406.00
36.3741 11297.00
36.4393 21738.00
36.5045 42116.00
36.5697 70185.00
36.6349 69435.00
36.7001 39871.00
36.7653 15198.00
36.8305 6066.00
36.8957 4126.00
36.9609 3082.00
37.0261 2583.00
37.0913 2447.00
37.1565 2213.00
37.2217 2315.00
37.2869 2197.00
37.3521 2051.00
37.4173 1860.00
37.4825 1522.00
37.5477 1390.00
37.6129 1307.00
37.6781 1211.00
37.7433 1232.00
37.8085 1132.00
37.8736 1076.00
37.9388 1126.00
38.004 1047.00
38.0692 979.00
38.1344 1020.00
38.1996 998.00
38.2648 1015.00
38.33 989.00
38.3952 955.00
38.4604 970.00
38.5256 906.00
38.5908 938.00
38.656 840.00
38.7212 902.00
38.7864 866.00
38.8516 859.00
38.9168 821.00
38.982 819.00
39.0472 812.00
39.1124 849.00
39.1776 827.00
39.2428 866.00
39.308 858.00
39.3732 857.00
39.4384 814.00
39.5036 884.00
39.5688 895.00
39.634 924.00
39.6992 1043.00
39.7644 1049.00
39.8296 1214.00
39.8948 1347.00
39.96 1370.00
40.0252 1251.00
40.0904 1176.00
40.1556 1228.00
40.2208 1197.00
40.286 1203.00
40.3512 1029.00
40.4164 897.00
40.4816 852.00
40.5468 832.00
40.612 774.00
40.6772 762.00
40.7424 770.00
40.8076 734.00
40.8728 737.00
40.938 733.00
41.0032 681.00
41.0684 782.00
41.1336 689.00
41.1988 684.00
41.264 725.00
41.3292 682.00
41.3944 651.00
41.4596 713.00
41.5248 684.00
41.59 703.00
41.6552 675.00
41.7204 653.00
41.7856 686.00
41.8508 672.00
41.916 662.00
41.9812 720.00
42.0464 619.00
42.1116 631.00
42.1768 692.00
42.242 682.00
42.3072 656.00
42.3724 691.00
42.4376 631.00
42.5028 662.00
42.568 641.00
42.6332 679.00
42.6983 629.00
42.7635 579.00
42.8287 654.00
42.8939 706.00
42.9591 734.00
43.0243 806.00
43.0895 702.00
43.1547 690.00
43.2199 635.00
43.2851 664.00
43.3503 622.00
43.4155 648.00
43.4807 642.00
43.5459 698.00
43.6111 750.00
43.6763 724.00
43.7415 831.00
43.8067 790.00
43.8719 782.00
43.9371 722.00
44.0023 661.00
44.0675 668.00
44.1327 613.00
44.1979 615.00
44.2631 602.00
44.3283 603.00
44.3935 577.00
44.4587 582.00
44.5239 598.00
44.5891 567.00
44.6543 572.00
44.7195 612.00
44.7847 557.00
44.8499 613.00
44.9151 595.00
44.9803 592.00
45.0455 643.00
45.1107 626.00
45.1759 584.00
45.2411 587.00
45.3063 602.00
45.3715 608.00
45.4367 533.00
45.5019 621.00
45.5671 565.00
45.6323 562.00
45.6975 599.00
45.7627 583.00
45.8279 553.00
45.8931 562.00
45.9583 567.00
46.0235 577.00
46.0887 568.00
46.1539 587.00
46.2191 609.00
46.2843 639.00
46.3495 629.00
46.4147 588.00
46.4799 620.00
46.5451 596.00
46.6103 586.00
46.6755 665.00
46.7407 623.00
46.8059 646.00
46.8711 611.00
46.9363 686.00
47.0015 636.00
47.0667 628.00
47.1319 731.00
47.1971 700.00
47.2623 798.00
47.3275 862.00
47.3927 1018.00
47.4579 1139.00
47.523 1360.00
47.5882 1966.00
47.6534 3022.00
47.7186 5306.00
47.7838 9848.00
47.849 15870.00
47.9142 13888.00
47.9794 9490.00
48.0446 5689.00
48.1098 2228.00
48.175 1408.00
48.2402 1116.00
48.3054 945.00
48.3706 823.00
48.4358 819.00
48.501 787.00
48.5662 757.00
48.6314 717.00
48.6966 794.00
48.7618 767.00
48.827 777.00
48.8922 865.00
48.9574 858.00
49.0226 886.00
49.0878 907.00
49.153 858.00
49.2182 835.00
49.2834 789.00
49.3486 732.00
49.4138 710.00
49.479 651.00
49.5442 641.00
49.6094 570.00
49.6746 622.00
49.7398 615.00
49.805 618.00
49.8702 608.00
49.9354 583.00
50.0006 592.00
50.0658 609.00
50.131 625.00
50.1962 595.00
50.2614 589.00
50.3266 579.00
50.3918 590.00
50.457 651.00
50.5222 618.00
50.5874 634.00
50.6526 648.00
50.7178 640.00
50.783 596.00
50.8482 605.00
50.9134 524.00
50.9786 588.00
51.0438 612.00
51.109 577.00
51.1742 529.00
51.2394 563.00
51.3046 534.00
51.3698 517.00
51.435 568.00
51.5002 566.00
51.5654 537.00
51.6306 520.00
51.6958 578.00
51.761 536.00
51.8262 540.00
51.8914 524.00
51.9566 548.00
52.0218 503.00
52.087 533.00
52.1522 557.00
52.2174 505.00
52.2826 523.00
52.3477 513.00
52.4129 539.00
52.4781 555.00
52.5433 538.00
52.6085 556.00
52.6737 597.00
52.7389 559.00
52.8041 560.00
52.8693 570.00
52.9345 515.00
52.9997 503.00
53.0649 525.00
53.1301 513.00
53.1953 488.00
53.2605 525.00
53.3257 519.00
53.3909 523.00
53.4561 531.00
53.5213 520.00
53.5865 501.00
53.6517 473.00
53.7169 527.00
53.7821 490.00
53.8473 568.00
53.9125 503.00
53.9777 543.00
54.0429 505.00
54.1081 491.00
54.1733 486.00
54.2385 521.00
54.3037 536.00
54.3689 538.00
54.4341 530.00
54.4993 508.00
54.5645 521.00
54.6297 488.00
54.6949 583.00
54.7601 587.00
54.8253 590.00
54.8905 558.00
54.9557 553.00
55.0209 590.00
55.0861 625.00
55.1513 660.00
55.2165 608.00
55.2817 608.00
55.3469 595.00
55.4121 646.00
55.4773 619.00
55.5425 634.00
55.6077 617.00
55.6729 603.00
55.7381 680.00
55.8033 644.00
55.8685 659.00
55.9337 676.00
55.9989 701.00
56.0641 726.00
56.1293 758.00
56.1945 737.00
56.2597 885.00
56.3249 886.00
56.3901 1099.00
56.4553 1305.00
56.5205 1675.00
56.5857 2220.00
56.6509 3225.00
56.7161 5170.00
56.7813 9545.00
56.8465 17315.00
56.9117 24130.00
56.9769 15574.00
57.042 12976.00
57.1073 8795.00
57.1724 3126.00
57.2376 1918.00
57.3028 1398.00
57.368 1056.00
57.4332 966.00
57.4984 846.00
57.5636 792.00
57.6288 796.00
57.694 746.00
57.7592 824.00
57.8244 779.00
57.8896 781.00
57.9548 838.00
58.02 827.00
58.0852 815.00
58.1504 894.00
58.2156 828.00
58.2808 747.00
58.346 755.00
58.4112 781.00
58.4764 789.00
58.5416 792.00
58.6068 722.00
58.672 736.00
58.7372 795.00
58.8024 814.00
58.8676 727.00
58.9328 804.00
58.998 800.00
59.0632 852.00
59.1284 794.00
59.1936 771.00
59.2588 817.00
59.324 794.00
59.3892 812.00
59.4544 764.00
59.5196 760.00
59.5848 767.00
59.65 762.00
59.7152 745.00
59.7804 781.00
59.8456 762.00
59.9108 832.00
59.976 812.00
60.0412 786.00
60.1064 739.00
60.1716 723.00
60.2368 633.00
60.302 643.00
60.3672 652.00
60.4324 658.00
60.4976 590.00
60.5628 595.00
60.628 645.00
60.6932 605.00
60.7584 657.00
60.8236 675.00
60.8888 674.00
60.954 690.00
61.0192 725.00
61.0844 674.00
61.1496 704.00
61.2148 724.00
61.28 765.00
61.3452 748.00
61.4104 731.00
61.4756 715.00
61.5408 801.00
61.606 808.00
61.6712 764.00
61.7364 819.00
61.8016 729.00
61.8667 722.00
61.932 765.00
61.9971 740.00
62.0623 703.00
62.1275 703.00
62.1927 733.00
62.2579 744.00
62.3231 734.00
62.3883 710.00
62.4535 843.00
62.5187 848.00
62.5839 936.00
62.6491 1159.00
62.7143 1243.00
62.7795 1709.00
62.8447 2167.00
62.9099 3257.00
62.9751 5074.00
63.0403 8816.00
63.1055 15657.00
63.1707 20341.00
63.2359 12445.00
63.3011 10613.00
63.3663 9148.00
63.4315 3671.00
63.4967 1904.00
63.5619 1393.00
63.6271 1131.00
63.6923 995.00
63.7575 896.00
63.8227 835.00
63.8879 822.00
63.9531 818.00
64.0183 803.00
64.0835 706.00
64.1487 697.00
64.2139 735.00
64.2791 646.00
64.3443 679.00
64.4095 668.00
64.4747 633.00
64.5399 628.00
64.6051 710.00
64.6703 650.00
64.7355 644.00
64.8007 576.00
64.8659 636.00
64.9311 617.00
64.9963 634.00
65.0615 606.00
65.1267 625.00
65.1919 625.00
65.2571 579.00
65.3223 558.00
65.3875 617.00
65.4527 657.00
65.5179 666.00
65.5831 704.00
65.6483 728.00
65.7135 724.00
65.7787 712.00
65.8439 740.00
65.9091 736.00
65.9743 697.00
66.0395 671.00
66.1047 717.00
66.1699 754.00
66.2351 718.00
66.3003 749.00
66.3655 890.00
66.4307 1051.00
66.4959 1374.00
66.561 1931.00
66.6263 3051.00
66.6915 3636.00
66.7566 2206.00
66.8218 2232.00
66.887 1874.00
66.9522 1099.00
67.0174 864.00
67.0826 789.00
67.1478 765.00
67.213 712.00
67.2782 725.00
67.3434 733.00
67.4086 745.00
67.4738 806.00
67.539 755.00
67.6042 824.00
67.6694 937.00
67.7346 1053.00
67.7998 1320.00
67.865 1519.00
67.9302 2033.00
67.9954 2908.00
68.0606 4669.00
68.1258 7933.00
68.191 13292.00
68.2562 16792.00
68.3214 9565.00
68.3866 8471.00
68.4518 8405.00
68.517 3726.00
68.5822 1954.00
68.6474 1326.00
68.7126 1087.00
68.7778 1023.00
68.843 1013.00
68.9082 1024.00
68.9734 1151.00
69.0386 1306.00
69.1038 1586.00
69.169 2209.00
69.2342 3480.00
69.2994 5701.00
69.3646 8128.00
69.4298 6404.00
69.495 4244.00
69.5602 4524.00
69.6254 3260.00
69.6906 1582.00
69.7558 1115.00
69.821 908.00
69.8862 789.00
69.9514 730.00
70.0166 729.00
70.0818 651.00
70.147 649.00
70.2122 633.00
70.2774 574.00
70.3426 606.00
70.4078 586.00
70.473 594.00
70.5382 612.00
70.6034 602.00
70.6686 582.00
70.7338 567.00
70.799 548.00
70.8642 544.00
70.9294 539.00
70.9946 539.00
71.0598 499.00
71.125 529.00
71.1902 511.00
71.2554 559.00
71.3205 526.00
71.3858 551.00
71.451 535.00
71.5162 586.00
71.5813 521.00
71.6465 487.00
71.7117 551.00
71.7769 538.00
71.8421 552.00
71.9073 547.00
71.9725 527.00
72.0377 506.00
72.1029 530.00
72.1681 539.00
72.2333 538.00
72.2985 567.00
72.3637 539.00
72.4289 605.00
72.4941 575.00
72.5593 634.00
72.6245 685.00
72.6897 903.00
72.7549 1199.00
72.8201 1612.00
72.8853 1721.00
72.9505 1156.00
73.0157 1093.00
73.0809 1109.00
73.1461 702.00
73.2113 633.00
73.2765 557.00
73.3417 518.00
73.4069 489.00
73.4721 495.00
73.5373 517.00
73.6025 486.00
73.6677 524.00
73.7329 500.00
73.7981 514.00
73.8633 549.00
73.9285 533.00
73.9937 543.00
74.0589 592.00
74.1241 531.00
74.1893 539.00
74.2545 555.00
74.3197 571.00
74.3849 516.00
74.4501 525.00
74.5153 506.00
74.5805 518.00
74.6457 512.00
74.7109 528.00
74.7761 499.00
74.8413 499.00
74.9065 549.00
74.9717 527.00
75.0369 512.00
75.1021 578.00
75.1673 543.00
75.2325 571.00
75.2977 538.00
75.3629 535.00
75.4281 496.00
75.4933 533.00
75.5585 506.00
75.6237 486.00
75.6889 566.00
75.7541 488.00
75.8193 503.00
75.8845 540.00
75.9497 488.00
76.0149 486.00
76.0801 479.00
76.1452 447.00
76.2104 457.00
76.2756 468.00
76.3409 513.00
76.406 417.00
76.4712 451.00
76.5364 491.00
76.6016 463.00
76.6668 497.00
76.732 504.00
76.7972 586.00
76.8624 591.00
76.9276 676.00
76.9928 865.00
77.058 1105.00
77.1232 1664.00
77.1884 2463.00
77.2536 2819.00
77.3188 1683.00
77.384 1471.00
77.4492 1660.00
77.5144 1300.00
77.5796 714.00
77.6448 577.00
77.71 509.00
77.7752 462.00
77.8404 490.00
77.9056 499.00
77.9708 490.00
78.036 415.00
78.1012 468.00
78.1664 463.00
78.2316 443.00
78.2968 447.00
78.362 417.00
78.4272 457.00
78.4924 466.00
78.5576 422.00
78.6228 461.00
78.688 440.00
78.7532 410.00
78.8184 410.00
78.8836 462.00
78.9488 445.00
79.014 440.00
79.0792 438.00
79.1444 434.00
79.2096 425.00
79.2748 406.00
79.34 410.00
79.4052 464.00
79.4704 458.00
79.5356 443.00
79.6008 430.00
79.666 395.00
79.7312 438.00
79.7964 442.00
79.8616 482.00
79.9268 427.00
79.992 403.00
80.0572 416.00
80.1224 447.00
80.1876 381.00
80.2528 431.00
80.318 425.00
80.3832 451.00
80.4484 423.00
80.5136 395.00
80.5788 408.00
80.644 420.00
80.7092 449.00
80.7744 424.00
80.8396 434.00
80.9048 443.00
80.9699 454.00
81.0351 421.00
81.1003 480.00
81.1655 477.00
81.2307 474.00
81.2959 566.00
81.3611 576.00
81.4263 625.00
81.4915 821.00
81.5567 1130.00
81.6219 1510.00
81.6871 1558.00
81.7523 982.00
81.8175 967.00
81.8827 1087.00
81.9479 869.00
82.0131 581.00
82.0783 515.00
82.1435 550.00
82.2087 477.00
82.2739 470.00
82.3391 480.00
82.4043 477.00
82.4695 392.00
82.5347 440.00
82.5999 415.00
82.6651 418.00
82.7303 455.00
82.7955 442.00
82.8607 443.00
82.9259 440.00
82.9911 447.00
83.0563 438.00
83.1215 398.00
83.1867 413.00
83.2519 399.00
83.3171 418.00
83.3823 431.00
83.4475 419.00
83.5127 435.00
83.5779 400.00
83.6431 423.00
83.7083 447.00
83.7735 432.00
83.8387 415.00
83.9039 457.00
83.9691 429.00
84.0343 397.00
84.0995 441.00
84.1647 398.00
84.2299 403.00
84.2951 421.00
84.3603 421.00
84.4255 422.00
84.4907 367.00
84.5559 412.00
84.6211 425.00
84.6863 451.00
84.7515 430.00
84.8167 415.00
84.8819 408.00
84.9471 403.00
85.0123 427.00
85.0775 438.00
85.1427 395.00
85.2079 452.00
85.2731 427.00
85.3383 433.00
85.4035 381.00
85.4687 431.00
85.5339 440.00
85.5991 388.00
85.6643 394.00
85.7295 457.00
85.7946 426.00
85.8598 450.00
85.925 394.00
85.9903 453.00
86.0554 431.00
86.1206 463.00
86.1858 477.00
86.251 502.00
86.3162 445.00
86.3814 444.00
86.4466 468.00
86.5118 470.00
86.577 442.00
86.6422 472.00
86.7074 449.00
86.7726 468.00
86.8378 438.00
86.903 478.00
86.9682 471.00
87.0334 481.00
87.0986 448.00
87.1638 435.00
87.229 447.00
87.2942 443.00
87.3594 420.00
87.4246 462.00
87.4898 443.00
87.555 452.00
87.6202 423.00
87.6854 460.00
87.7506 466.00
87.8158 441.00
87.881 404.00
87.9462 447.00
88.0114 437.00
88.0766 443.00
88.1418 440.00
88.207 451.00
88.2722 458.00
88.3374 441.00
88.4026 428.00
88.4678 461.00
88.533 419.00
88.5982 471.00
88.6634 452.00
88.7286 414.00
88.7938 422.00
88.859 460.00
88.9242 449.00
88.9894 473.00
89.0546 448.00
89.1198 464.00
89.185 508.00
89.2502 552.00
89.3154 594.00
89.3806 630.00
89.4458 744.00
89.511 771.00
89.5762 1104.00
89.6414 1471.00
89.7066 2279.00
89.7718 3444.00
89.837 5228.00
89.9022 4642.00
89.9674 2542.00
90.0326 2218.00
90.0978 2716.00
90.163 2812.00
90.2282 1593.00
90.2934 953.00
90.3586 744.00
90.4238 623.00
90.489 578.00
90.5542 492.00
90.6193 530.00
90.6845 485.00
90.7497 466.00
90.8149 501.00
90.8801 491.00
90.9453 510.00
91.0105 469.00
91.0757 480.00
91.1409 482.00
91.2061 463.00
91.2713 475.00
91.3365 434.00
91.4017 504.00
91.4669 464.00
91.5321 432.00
91.5973 464.00
91.6625 424.00
91.7277 476.00
91.7929 473.00
91.8581 413.00
91.9233 477.00
91.9885 445.00
92.0537 477.00
92.1189 513.00
92.1841 496.00
92.2493 487.00
92.3145 485.00
92.3797 504.00
92.4449 503.00
92.5101 541.00
92.5753 613.00
92.6405 647.00
92.7057 631.00
92.7709 765.00
92.8361 927.00
92.9013 1343.00
92.9665 1747.00
93.0317 2186.00
93.0969 1571.00
93.1621 1082.00
93.2273 1061.00
93.2925 1236.00
93.3577 1262.00
93.4229 859.00
93.4881 630.00
93.5533 588.00
93.6185 539.00
93.6837 528.00
93.7489 545.00
93.8141 494.00
93.8793 497.00
93.9445 521.00
94.0097 463.00
94.0749 494.00
94.1401 448.00
94.2053 466.00
94.2705 471.00
94.3357 464.00
94.4009 464.00
94.4661 489.00
94.5313 478.00
94.5965 543.00
94.6617 524.00
94.7269 538.00
94.7921 545.00
94.8573 524.00
94.9225 588.00
94.9877 581.00
95.0529 629.00
95.1181 690.00
95.1833 833.00
95.2485 1079.00
95.3137 1481.00
95.3789 2275.00
95.444 3502.00
95.5092 5121.00
95.5744 4867.00
95.6396 2686.00
95.7048 2096.00
95.77 2432.00
95.8352 3034.00
95.9004 2374.00
95.9656 1316.00
96.0308 868.00
96.096 700.00
96.1612 672.00
96.2264 563.00
96.2916 620.00
96.3568 529.00
96.422 547.00
96.4872 526.00
96.5524 472.00
96.6176 496.00
96.6828 466.00
96.748 502.00
96.8132 481.00
96.8784 476.00
96.9436 436.00
97.0088 467.00
97.074 480.00
97.1392 527.00
97.2044 535.00
97.2696 499.00
97.3348 484.00
97.4 504.00
97.4652 487.00
97.5304 468.00
97.5956 514.00
97.6608 489.00
97.726 495.00
97.7912 453.00
97.8564 493.00
97.9216 478.00
97.9868 515.00
98.052 457.00
98.1172 470.00
98.1824 508.00
98.2476 520.00
98.3128 559.00
98.378 603.00
98.4432 619.00
98.5084 694.00
98.5736 879.00
98.6388 1129.00
98.704 1608.00
98.7692 2307.00
98.8344 3196.00
98.8996 2496.00
98.9648 1476.00
99.03 1349.00
99.0952 1585.00
99.1604 1777.00
99.2256 1581.00
99.2908 923.00
99.356 767.00
99.4212 623.00
99.4864 598.00
99.5516 544.00
99.6168 526.00
99.682 525.00
99.7472 576.00
99.8124 516.00
99.8776 493.00
99.9428 521.00
100.008 488.00
100.073 515.00
100.095 480.00