File: data/xrd_creation/results/PG_2152-1.xy
9.903433 2640.00
9.968632 2692.00
10.0338 2643.00
10.099 2488.00
10.1642 2511.00
10.2294 2583.00
10.2946 2561.00
10.3598 2517.00
10.425 2412.00
10.4902 2441.00
10.5554 2495.00
10.6206 2323.00
10.6858 2425.00
10.751 2326.00
10.8162 2398.00
10.8814 2312.00
10.9466 2282.00
11.0118 2283.00
11.077 2316.00
11.1422 2273.00
11.2074 2311.00
11.2726 2192.00
11.3378 2245.00
11.403 2200.00
11.4682 2221.00
11.5334 2210.00
11.5986 2242.00
11.6638 2226.00
11.729 2148.00
11.7942 2238.00
11.8594 2093.00
11.9246 2187.00
11.9898 2148.00
12.055 2083.00
12.1202 2176.00
12.1854 2083.00
12.2506 2148.00
12.3158 2028.00
12.381 2057.00
12.4462 2076.00
12.5114 2022.00
12.5766 2043.00
12.6418 1982.00
12.707 2048.00
12.7722 2048.00
12.8374 2008.00
12.9026 1912.00
12.9678 1940.00
13.033 1985.00
13.0982 1935.00
13.1634 1947.00
13.2286 2024.00
13.2938 1990.00
13.359 1900.00
13.4242 1846.00
13.4894 1873.00
13.5546 1836.00
13.6198 1927.00
13.685 1961.00
13.7502 1909.00
13.8154 1873.00
13.8805 1873.00
13.9457 1868.00
14.0109 1785.00
14.0761 1785.00
14.1413 1860.00
14.2065 1835.00
14.2717 1893.00
14.3369 1848.00
14.4021 1847.00
14.4673 1916.00
14.5325 1818.00
14.5977 1838.00
14.6629 1777.00
14.7281 1826.00
14.7933 1913.00
14.8585 1817.00
14.9237 1800.00
14.9889 1798.00
15.0541 1860.00
15.1193 1760.00
15.1845 1878.00
15.2497 1817.00
15.3149 1892.00
15.3801 2007.00
15.4453 2094.00
15.5105 2165.00
15.5757 2404.00
15.6409 2675.00
15.7061 3209.00
15.7713 4087.00
15.8365 5372.00
15.9017 7116.00
15.9669 8330.00
16.0321 6839.00
16.0973 4399.00
16.1625 3041.00
16.2277 2426.00
16.2929 2223.00
16.3581 2059.00
16.4233 1902.00
16.4885 1885.00
16.5537 1842.00
16.6189 1773.00
16.6841 1721.00
16.7493 1837.00
16.8145 1667.00
16.8797 1750.00
16.9449 1635.00
17.0101 1643.00
17.0753 1788.00
17.1405 1743.00
17.2057 1688.00
17.2709 1662.00
17.3361 1700.00
17.4013 1676.00
17.4665 1597.00
17.5317 1651.00
17.5969 1807.00
17.6621 1762.00
17.7273 1913.00
17.7925 1723.00
17.8577 1767.00
17.9229 1662.00
17.9881 1589.00
18.0533 1539.00
18.1185 1551.00
18.1837 1536.00
18.2489 1595.00
18.3141 1610.00
18.3793 1538.00
18.4445 1540.00
18.5097 1615.00
18.5749 1556.00
18.6401 1583.00
18.7052 1524.00
18.7704 1515.00
18.8356 1513.00
18.9008 1544.00
18.966 1544.00
19.0312 1480.00
19.0964 1468.00
19.1616 1503.00
19.2268 1551.00
19.292 1488.00
19.3572 1460.00
19.4224 1482.00
19.4876 1462.00
19.5528 1471.00
19.618 1535.00
19.6832 1464.00
19.7484 1517.00
19.8136 1468.00
19.8788 1367.00
19.944 1450.00
20.0092 1377.00
20.0744 1377.00
20.1396 1364.00
20.2048 1419.00
20.27 1404.00
20.3352 1462.00
20.4004 1399.00
20.4656 1338.00
20.5308 1462.00
20.596 1386.00
20.6612 1388.00
20.7264 1438.00
20.7916 1345.00
20.8568 1350.00
20.922 1343.00
20.9872 1396.00
21.0524 1473.00
21.1176 1337.00
21.1828 1336.00
21.248 1409.00
21.3132 1348.00
21.3784 1298.00
21.4436 1275.00
21.5088 1317.00
21.574 1405.00
21.6392 1389.00
21.7044 1368.00
21.7696 1318.00
21.8348 1380.00
21.9 1407.00
21.9652 1312.00
22.0304 1334.00
22.0956 1327.00
22.1608 1324.00
22.226 1328.00
22.2912 1260.00
22.3564 1336.00
22.4216 1344.00
22.4868 1310.00
22.552 1287.00
22.6172 1369.00
22.6824 1294.00
22.7476 1312.00
22.8128 1322.00
22.878 1305.00
22.9432 1310.00
23.0084 1301.00
23.0736 1342.00
23.1388 1323.00
23.204 1224.00
23.2692 1269.00
23.3344 1320.00
23.3996 1310.00
23.4647 1299.00
23.5299 1268.00
23.5951 1348.00
23.6603 1295.00
23.7255 1312.00
23.7907 1311.00
23.8559 1327.00
23.9211 1352.00
23.9863 1271.00
24.0515 1284.00
24.1167 1338.00
24.1819 1445.00
24.2471 1617.00
24.3123 1854.00
24.3775 2079.00
24.4427 1982.00
24.5079 1572.00
24.5731 1496.00
24.6383 1567.00
24.7035 1727.00
24.7687 1873.00
24.8339 1666.00
24.8991 1561.00
24.9643 1425.00
25.0295 1397.00
25.0947 1232.00
25.1599 1292.00
25.2251 1234.00
25.2903 1346.00
25.3555 1232.00
25.4207 1221.00
25.4859 1194.00
25.5511 1272.00
25.6163 1262.00
25.6815 1248.00
25.7467 1223.00
25.8119 1289.00
25.8771 1218.00
25.9423 1148.00
26.0075 1297.00
26.0727 1189.00
26.1379 1224.00
26.2031 1292.00
26.2683 1284.00
26.3335 1201.00
26.3987 1252.00
26.4639 1286.00
26.5291 1221.00
26.5943 1234.00
26.6595 1269.00
26.7247 1308.00
26.7899 1324.00
26.8551 1286.00
26.9203 1336.00
26.9855 1497.00
27.0507 1442.00
27.1159 1464.00
27.1811 1574.00
27.2463 1847.00
27.3115 2270.00
27.3767 2937.00
27.4419 3915.00
27.5071 5647.00
27.5723 7029.00
27.6375 6769.00
27.7027 5054.00
27.7679 3656.00
27.8331 2883.00
27.8983 2653.00
27.9635 2702.00
28.0287 3134.00
28.0939 3942.00
28.1591 5877.00
28.2243 8623.00
28.2894 10449.00
28.3546 10103.00
28.4198 8908.00
28.485 8646.00
28.5502 7129.00
28.6154 4584.00
28.6806 2872.00
28.7458 2313.00
28.811 1841.00
28.8762 1743.00
28.9414 1541.00
29.0066 1417.00
29.0718 1445.00
29.137 1357.00
29.2022 1359.00
29.2674 1309.00
29.3326 1287.00
29.3978 1277.00
29.463 1258.00
29.5282 1256.00
29.5934 1213.00
29.6586 1175.00
29.7238 1229.00
29.789 1231.00
29.8542 1265.00
29.9194 1179.00
29.9846 1234.00
30.0498 1162.00
30.115 1224.00
30.1802 1175.00
30.2454 1184.00
30.3106 1178.00
30.3758 1201.00
30.441 1186.00
30.5062 1240.00
30.5714 1212.00
30.6366 1231.00
30.7018 1213.00
30.767 1175.00
30.8322 1131.00
30.8974 1143.00
30.9626 1203.00
31.0278 1218.00
31.093 1224.00
31.1582 1248.00
31.2234 1281.00
31.2886 1260.00
31.3538 1359.00
31.419 1443.00
31.4842 1684.00
31.5494 1828.00
31.6146 2324.00
31.6798 3322.00
31.745 4567.00
31.8102 5640.00
31.8754 4918.00
31.9406 3779.00
32.0058 2912.00
32.071 2005.00
32.1362 1800.00
32.2014 1484.00
32.2666 1335.00
32.3318 1261.00
32.397 1136.00
32.4622 1088.00
32.5274 1181.00
32.5926 1093.00
32.6578 1034.00
32.723 1060.00
32.7882 1032.00
32.8534 1049.00
32.9186 1066.00
32.9838 1125.00
33.0489 1073.00
33.1141 1058.00
33.1793 1086.00
33.2445 1039.00
33.3097 1079.00
33.3749 1057.00
33.4401 1007.00
33.5053 1017.00
33.5705 1053.00
33.6357 991.00
33.7009 1035.00
33.7661 1016.00
33.8313 1087.00
33.8965 1008.00
33.9617 1022.00
34.0269 1105.00
34.0921 1118.00
34.1573 1099.00
34.2225 1233.00
34.2877 1258.00
34.3529 1443.00
34.4181 1937.00
34.4833 2195.00
34.5485 1991.00
34.6137 1789.00
34.6789 1768.00
34.7441 1717.00
34.8093 1526.00
34.8745 1331.00
34.9397 1284.00
35.0049 1100.00
35.0701 1112.00
35.1353 1072.00
35.2005 1055.00
35.2657 1029.00
35.3309 1139.00
35.3961 1156.00
35.4613 1265.00
35.5265 1428.00
35.5917 1796.00
35.6569 1776.00
35.7221 1496.00
35.7873 1276.00
35.8525 1104.00
35.9177 1115.00
35.9829 1081.00
36.0481 1207.00
36.1133 1262.00
36.1785 1329.00
36.2437 1604.00
36.3089 1532.00
36.3741 1445.00
36.4393 1363.00
36.5045 1054.00
36.5697 1041.00
36.6349 1043.00
36.7001 971.00
36.7653 965.00
36.8305 925.00
36.8957 914.00
36.9609 957.00
37.0261 886.00
37.0913 975.00
37.1565 920.00
37.2217 925.00
37.2869 967.00
37.3521 963.00
37.4173 928.00
37.4825 978.00
37.5477 910.00
37.6129 972.00
37.6781 918.00
37.7433 929.00
37.8085 944.00
37.8736 881.00
37.9388 887.00
38.004 978.00
38.0692 893.00
38.1344 940.00
38.1996 909.00
38.2648 923.00
38.33 922.00
38.3952 885.00
38.4604 941.00
38.5256 950.00
38.5908 982.00
38.656 1058.00
38.7212 1078.00
38.7864 1128.00
38.8516 1278.00
38.9168 1269.00
38.982 1190.00
39.0472 1141.00
39.1124 1100.00
39.1776 1116.00
39.2428 1235.00
39.308 1315.00
39.3732 1392.00
39.4384 1760.00
39.5036 2004.00
39.5688 2769.00
39.634 3803.00
39.6992 5230.00
39.7644 6377.00
39.8296 6162.00
39.8948 4985.00
39.96 3580.00
40.0252 2498.00
40.0904 1931.00
40.1556 1619.00
40.2208 1348.00
40.286 1314.00
40.3512 1177.00
40.4164 1122.00
40.4816 1128.00
40.5468 1067.00
40.612 1073.00
40.6772 1029.00
40.7424 1038.00
40.8076 1108.00
40.8728 1229.00
40.938 1238.00
41.0032 1416.00
41.0684 1589.00
41.1336 1547.00
41.1988 1162.00
41.264 1187.00
41.3292 1165.00
41.3944 1211.00
41.4596 1335.00
41.5248 1244.00
41.59 1179.00
41.6552 1286.00
41.7204 1168.00
41.7856 1106.00
41.8508 1108.00
41.916 996.00
41.9812 1041.00
42.0464 1030.00
42.1116 1005.00
42.1768 1098.00
42.242 1108.00
42.3072 1211.00
42.3724 1339.00
42.4376 1686.00
42.5028 1807.00
42.568 1890.00
42.6332 1682.00
42.6983 1447.00
42.7635 1262.00
42.8287 1145.00
42.8939 1028.00
42.9591 984.00
43.0243 966.00
43.0895 891.00
43.1547 837.00
43.2199 866.00
43.2851 947.00
43.3503 845.00
43.4155 852.00
43.4807 873.00
43.5459 866.00
43.6111 891.00
43.6763 913.00
43.7415 865.00
43.8067 836.00
43.8719 853.00
43.9371 878.00
44.0023 867.00
44.0675 893.00
44.1327 886.00
44.1979 878.00
44.2631 800.00
44.3283 833.00
44.3935 871.00
44.4587 855.00
44.5239 862.00
44.5891 885.00
44.6543 906.00
44.7195 889.00
44.7847 871.00
44.8499 946.00
44.9151 908.00
44.9803 999.00
45.0455 1113.00
45.1107 1166.00
45.1759 1208.00
45.2411 1136.00
45.3063 981.00
45.3715 975.00
45.4367 979.00
45.5019 915.00
45.5671 963.00
45.6323 910.00
45.6975 985.00
45.7627 1087.00
45.8279 1163.00
45.8931 1137.00
45.9583 1052.00
46.0235 978.00
46.0887 929.00
46.1539 881.00
46.2191 865.00
46.2843 894.00
46.3495 868.00
46.4147 890.00
46.4799 822.00
46.5451 901.00
46.6103 905.00
46.6755 802.00
46.7407 898.00
46.8059 941.00
46.8711 932.00
46.9363 882.00
47.0015 942.00
47.0667 1046.00
47.1319 1034.00
47.1971 1161.00
47.2623 1405.00
47.3275 1640.00
47.3927 1857.00
47.4579 1684.00
47.523 1579.00
47.5882 1386.00
47.6534 1238.00
47.7186 1104.00
47.7838 1068.00
47.849 1091.00
47.9142 1027.00
47.9794 1104.00
48.0446 1120.00
48.1098 1207.00
48.175 1335.00
48.2402 1547.00
48.3054 1824.00
48.3706 2249.00
48.4358 2606.00
48.501 3137.00
48.5662 3014.00
48.6314 3122.00
48.6966 3233.00
48.7618 3589.00
48.827 4256.00
48.8922 5143.00
48.9574 5178.00
49.0226 4947.00
49.0878 4214.00
49.153 3272.00
49.2182 2592.00
49.2834 2025.00
49.3486 1922.00
49.4138 1717.00
49.479 1841.00
49.5442 2130.00
49.6094 1995.00
49.6746 1766.00
49.7398 1530.00
49.805 1335.00
49.8702 1230.00
49.9354 1214.00
50.0006 1266.00
50.0658 1428.00
50.131 1548.00
50.1962 1736.00
50.2614 1881.00
50.3266 2167.00
50.3918 2401.00
50.457 2262.00
50.5222 2109.00
50.5874 1656.00
50.6526 1404.00
50.7178 1211.00
50.783 1395.00
50.8482 1605.00
50.9134 1495.00
50.9786 1430.00
51.0438 1273.00
51.109 1021.00
51.1742 1025.00
51.2394 991.00
51.3046 962.00
51.3698 993.00
51.435 1070.00
51.5002 1116.00
51.5654 1061.00
51.6306 1058.00
51.6958 918.00
51.761 874.00
51.8262 876.00
51.8914 865.00
51.9566 790.00
52.0218 811.00
52.087 846.00
52.1522 817.00
52.2174 819.00
52.2826 809.00
52.3477 839.00
52.4129 850.00
52.4781 825.00
52.5433 881.00
52.6085 809.00
52.6737 831.00
52.7389 869.00
52.8041 816.00
52.8693 811.00
52.9345 762.00
52.9997 865.00
53.0649 763.00
53.1301 845.00
53.1953 793.00
53.2605 880.00
53.3257 766.00
53.3909 776.00
53.4561 834.00
53.5213 805.00
53.5865 832.00
53.6517 811.00
53.7169 811.00
53.7821 849.00
53.8473 837.00
53.9125 831.00
53.9777 871.00
54.0429 907.00
54.1081 921.00
54.1733 907.00
54.2385 1039.00
54.3037 1228.00
54.3689 1436.00
54.4341 1410.00
54.4993 1242.00
54.5645 1127.00
54.6297 1111.00
54.6949 971.00
54.7601 970.00
54.8253 926.00
54.8905 882.00
54.9557 973.00
55.0209 969.00
55.0861 1046.00
55.1513 1029.00
55.2165 1146.00
55.2817 1184.00
55.3469 1340.00
55.4121 1623.00
55.4773 2005.00
55.5425 2315.00
55.6077 2478.00
55.6729 2499.00
55.7381 2330.00
55.8033 1964.00
55.8685 1797.00
55.9337 1565.00
55.9989 1469.00
56.0641 1394.00
56.1293 1461.00
56.1945 1430.00
56.2597 1357.00
56.3249 1363.00
56.3901 1322.00
56.4553 1350.00
56.5205 1492.00
56.5857 1486.00
56.6509 1447.00
56.7161 1343.00
56.7813 1264.00
56.8465 1168.00
56.9117 1049.00
56.9769 1038.00
57.042 945.00
57.1073 935.00
57.1724 934.00
57.2376 1008.00
57.3028 959.00
57.368 977.00
57.4332 1173.00
57.4984 1156.00
57.5636 1143.00
57.6288 1171.00
57.694 995.00
57.7592 969.00
57.8244 987.00
57.8896 1029.00
57.9548 1104.00
58.02 1225.00
58.0852 1300.00
58.1504 1301.00
58.2156 1375.00
58.2808 1243.00
58.346 1154.00
58.4112 1055.00
58.4764 1021.00
58.5416 1066.00
58.6068 1032.00
58.672 1067.00
58.7372 1039.00
58.8024 1023.00
58.8676 1032.00
58.9328 1099.00
58.998 1073.00
59.0632 1143.00
59.1284 1101.00
59.1936 1083.00
59.2588 1058.00
59.324 1053.00
59.3892 915.00
59.4544 883.00
59.5196 870.00
59.5848 868.00
59.65 853.00
59.7152 861.00
59.7804 879.00
59.8456 901.00
59.9108 948.00
59.976 1039.00
60.0412 1226.00
60.1064 1225.00
60.1716 1172.00
60.2368 1252.00
60.302 1229.00
60.3672 1200.00
60.4324 1085.00
60.4976 1005.00
60.5628 1051.00
60.628 890.00
60.6932 793.00
60.7584 817.00
60.8236 855.00
60.8888 783.00
60.954 805.00
61.0192 818.00
61.0844 862.00
61.1496 805.00
61.2148 879.00
61.28 852.00
61.3452 838.00
61.4104 860.00
61.4756 912.00
61.5408 889.00
61.606 1033.00
61.6712 993.00
61.7364 1018.00
61.8016 955.00
61.8667 996.00
61.932 880.00
61.9971 887.00
62.0623 850.00
62.1275 960.00
62.1927 922.00
62.2579 1066.00
62.3231 1020.00
62.3883 941.00
62.4535 982.00
62.5187 883.00
62.5839 805.00
62.6491 829.00
62.7143 840.00
62.7795 820.00
62.8447 833.00
62.9099 1018.00
62.9751 964.00
63.0403 1074.00
63.1055 1273.00
63.1707 1159.00
63.2359 1139.00
63.3011 1053.00
63.3663 989.00
63.4315 917.00
63.4967 842.00
63.5619 799.00
63.6271 843.00
63.6923 919.00
63.7575 884.00
63.8227 957.00
63.8879 957.00
63.9531 1042.00
64.0183 1102.00
64.0835 1263.00
64.1487 1481.00
64.2139 1685.00
64.2791 1763.00
64.3443 1790.00
64.4095 1670.00
64.4747 1576.00
64.5399 1540.00
64.6051 1353.00
64.6703 1188.00
64.7355 1196.00
64.8007 1020.00
64.8659 980.00
64.9311 901.00
64.9963 882.00
65.0615 926.00
65.1267 982.00
65.1919 1020.00
65.2571 1088.00
65.3223 1106.00
65.3875 1139.00
65.4527 1260.00
65.5179 1145.00
65.5831 1135.00
65.6483 1048.00
65.7135 1015.00
65.7787 1029.00
65.8439 1068.00
65.9091 1115.00
65.9743 1214.00
66.0395 1204.00
66.1047 1123.00
66.1699 1086.00
66.2351 1078.00
66.3003 999.00
66.3655 972.00
66.4307 926.00
66.4959 903.00
66.561 900.00
66.6263 798.00
66.6915 832.00
66.7566 794.00
66.8218 748.00
66.887 872.00
66.9522 716.00
67.0174 730.00
67.0826 687.00
67.1478 778.00
67.213 760.00
67.2782 724.00
67.3434 743.00
67.4086 674.00
67.4738 802.00
67.539 747.00
67.6042 710.00
67.6694 715.00
67.7346 694.00
67.7998 729.00
67.865 729.00
67.9302 731.00
67.9954 700.00
68.0606 771.00
68.1258 758.00
68.191 753.00
68.2562 781.00
68.3214 762.00
68.3866 715.00
68.4518 685.00
68.517 727.00
68.5822 749.00
68.6474 758.00
68.7126 782.00
68.7778 755.00
68.843 743.00
68.9082 806.00
68.9734 804.00
69.0386 707.00
69.1038 797.00
69.169 841.00
69.2342 891.00
69.2994 902.00
69.3646 894.00
69.4298 924.00
69.495 907.00
69.5602 940.00
69.6254 943.00
69.6906 1051.00
69.7558 1167.00
69.821 1297.00
69.8862 1410.00
69.9514 1482.00
70.0166 1476.00
70.0818 1473.00
70.147 1295.00
70.2122 1287.00
70.2774 1145.00
70.3426 1015.00
70.4078 894.00
70.473 957.00
70.5382 905.00
70.6034 818.00
70.6686 890.00
70.7338 895.00
70.799 853.00
70.8642 852.00
70.9294 884.00
70.9946 907.00
71.0598 960.00
71.125 1027.00
71.1902 1054.00
71.2554 1098.00
71.3205 1082.00
71.3858 1126.00
71.451 1028.00
71.5162 1056.00
71.5813 1073.00
71.6465 996.00
71.7117 911.00
71.7769 873.00
71.8421 860.00
71.9073 817.00
71.9725 782.00
72.0377 760.00
72.1029 789.00
72.1681 822.00
72.2333 810.00
72.2985 836.00
72.3637 859.00
72.4289 790.00
72.4941 815.00
72.5593 797.00
72.6245 803.00
72.6897 846.00
72.7549 819.00
72.8201 814.00
72.8853 802.00
72.9505 912.00
73.0157 904.00
73.0809 912.00
73.1461 853.00
73.2113 738.00
73.2765 854.00
73.3417 864.00
73.4069 811.00
73.4721 877.00
73.5373 728.00
73.6025 795.00
73.6677 732.00
73.7329 773.00
73.7981 833.00
73.8633 804.00
73.9285 796.00
73.9937 721.00
74.0589 733.00
74.1241 755.00
74.1893 732.00
74.2545 753.00
74.3197 747.00
74.3849 738.00
74.4501 776.00
74.5153 769.00
74.5805 679.00
74.6457 791.00
74.7109 746.00
74.7761 795.00
74.8413 830.00
74.9065 895.00
74.9717 852.00
75.0369 859.00
75.1021 834.00
75.1673 819.00
75.2325 864.00
75.2977 993.00
75.3629 994.00
75.4281 863.00
75.4933 908.00
75.5585 953.00
75.6237 860.00
75.6889 926.00
75.7541 900.00
75.8193 914.00
75.8845 1008.00
75.9497 943.00
76.0149 1039.00
76.0801 1095.00
76.1452 1135.00
76.2104 1145.00
76.2756 1060.00
76.3409 1143.00
76.406 1197.00
76.4712 1211.00
76.5364 1208.00
76.6016 1264.00
76.6668 1185.00
76.732 1215.00
76.7972 1186.00
76.8624 1137.00
76.9276 1107.00
76.9928 1105.00
77.058 1118.00
77.1232 1151.00
77.1884 1082.00
77.2536 1158.00
77.3188 1356.00
77.384 1421.00
77.4492 1437.00
77.5144 1476.00
77.5796 1565.00
77.6448 1644.00
77.71 1696.00
77.7752 1747.00
77.8404 1759.00
77.9056 1663.00
77.9708 1480.00
78.036 1344.00
78.1012 1273.00
78.1664 1176.00
78.2316 1185.00
78.2968 1089.00
78.362 1032.00
78.4272 1040.00
78.4924 1007.00
78.5576 993.00
78.6228 977.00
78.688 964.00
78.7532 1062.00
78.8184 1014.00
78.8836 1022.00
78.9488 968.00
79.014 963.00
79.0792 1001.00
79.1444 892.00
79.2096 930.00
79.2748 875.00
79.34 924.00
79.4052 844.00
79.4704 792.00
79.5356 730.00
79.6008 773.00
79.666 790.00
79.7312 724.00
79.7964 742.00
79.8616 749.00
79.9268 750.00
79.992 698.00
80.0572 735.00
80.1224 733.00
80.1876 720.00
80.2528 759.00
80.318 736.00
80.3832 713.00
80.4484 754.00
80.5136 707.00
80.5788 768.00
80.644 736.00
80.7092 746.00
80.7744 763.00
80.8396 711.00
80.9048 709.00
80.9699 731.00
81.0351 753.00
81.1003 734.00
81.1655 706.00
81.2307 729.00
81.2959 726.00
81.3611 769.00
81.4263 739.00
81.4915 763.00
81.5567 735.00
81.6219 768.00
81.6871 818.00
81.7523 753.00
81.8175 835.00
81.8827 868.00
81.9479 829.00
82.0131 849.00
82.0783 828.00
82.1435 870.00
82.2087 819.00
82.2739 841.00
82.3391 865.00
82.4043 938.00
82.4695 1001.00
82.5347 1008.00
82.5999 1063.00
82.6651 1057.00
82.7303 998.00
82.7955 1094.00
82.8607 980.00
82.9259 954.00
82.9911 859.00
83.0563 873.00
83.1215 819.00
83.1867 877.00
83.2519 870.00
83.3171 861.00
83.3823 852.00
83.4475 837.00
83.5127 862.00
83.5779 837.00
83.6431 828.00
83.7083 797.00
83.7735 788.00
83.8387 754.00
83.9039 774.00
83.9691 733.00
84.0343 834.00
84.0995 815.00
84.1647 854.00
84.2299 821.00
84.2951 846.00
84.3603 808.00
84.4255 797.00
84.4907 826.00
84.5559 743.00
84.6211 807.00
84.6863 810.00
84.7515 794.00
84.8167 768.00
84.8819 754.00
84.9471 834.00
85.0123 861.00
85.0775 840.00
85.1427 890.00
85.2079 929.00
85.2731 856.00
85.3383 815.00
85.4035 806.00
85.4687 790.00
85.5339 828.00
85.5991 803.00
85.6643 773.00
85.7295 791.00
85.7946 770.00
85.8598 799.00
85.925 740.00
85.9903 789.00
86.0554 750.00
86.1206 779.00
86.1858 772.00
86.251 798.00
86.3162 808.00
86.3814 753.00
86.4466 735.00
86.5118 748.00
86.577 791.00
86.6422 770.00
86.7074 757.00
86.7726 746.00
86.8378 769.00
86.903 776.00
86.9682 687.00
87.0334 694.00
87.0986 726.00
87.1638 739.00
87.229 725.00
87.2942 701.00
87.3594 715.00
87.4246 768.00
87.4898 747.00
87.555 761.00
87.6202 777.00
87.6854 776.00
87.7506 794.00
87.8158 752.00
87.881 819.00
87.9462 793.00
88.0114 771.00
88.0766 845.00
88.1418 796.00
88.207 841.00
88.2722 765.00
88.3374 911.00
88.4026 900.00
88.4678 908.00
88.533 880.00
88.5982 995.00
88.6634 1089.00
88.7286 1132.00
88.7938 1156.00
88.859 1176.00
88.9242 1196.00
88.9894 1104.00
89.0546 1150.00
89.1198 1151.00
89.185 1059.00
89.2502 1048.00
89.3154 1011.00
89.3806 945.00
89.4458 917.00
89.511 881.00
89.5762 845.00
89.6414 889.00
89.7066 878.00
89.7718 876.00
89.837 889.00
89.9022 928.00
89.9674 866.00
90.0326 925.00
90.0978 1005.00
90.163 1007.00
90.2282 928.00
90.2934 1089.00
90.3586 995.00
90.4238 993.00
90.489 1010.00
90.5542 1042.00
90.6193 984.00
90.6845 902.00
90.7497 959.00
90.8149 964.00
90.8801 967.00
90.9453 943.00
91.0105 924.00
91.0757 860.00
91.1409 883.00
91.2061 847.00
91.2713 859.00
91.3365 876.00
91.4017 837.00
91.4669 830.00
91.5321 918.00
91.5973 849.00
91.6625 876.00
91.7277 900.00
91.7929 812.00
91.8581 831.00
91.9233 844.00
91.9885 843.00
92.0537 735.00
92.1189 746.00
92.1841 729.00
92.2493 720.00
92.3145 765.00
92.3797 746.00
92.4449 806.00
92.5101 761.00
92.5753 787.00
92.6405 676.00
92.7057 713.00
92.7709 760.00
92.8361 732.00
92.9013 740.00
92.9665 729.00
93.0317 721.00
93.0969 738.00
93.1621 695.00
93.2273 689.00
93.2925 747.00
93.3577 748.00
93.4229 750.00
93.4881 713.00
93.5533 745.00
93.6185 746.00
93.6837 727.00
93.7489 770.00
93.8141 719.00
93.8793 765.00
93.9445 764.00
94.0097 801.00
94.0749 726.00
94.1401 760.00
94.2053 785.00
94.2705 783.00
94.3357 785.00
94.4009 718.00
94.4661 738.00
94.5313 812.00
94.5965 795.00
94.6617 733.00
94.7269 735.00
94.7921 750.00
94.8573 798.00
94.9225 817.00
94.9877 774.00
95.0529 814.00
95.1181 813.00
95.1833 848.00
95.2485 961.00
95.3137 943.00
95.3789 927.00
95.444 952.00
95.5092 986.00
95.5744 988.00
95.6396 1060.00
95.7048 1107.00
95.77 1148.00
95.8352 1217.00
95.9004 1175.00
95.9656 1058.00
96.0308 1071.00
96.096 1138.00
96.1612 1112.00
96.2264 1086.00
96.2916 1032.00
96.3568 1056.00
96.422 1036.00
96.4872 1012.00
96.5524 1022.00
96.6176 1036.00
96.6828 1106.00
96.748 1104.00
96.8132 1055.00
96.8784 1094.00
96.9436 1129.00
97.0088 1109.00
97.074 1198.00
97.1392 1137.00
97.2044 1098.00
97.2696 1080.00
97.3348 977.00
97.4 1032.00
97.4652 967.00
97.5304 956.00
97.5956 911.00
97.6608 892.00
97.726 842.00
97.7912 860.00
97.8564 822.00
97.9216 822.00
97.9868 804.00
98.052 827.00
98.1172 799.00
98.1824 785.00
98.2476 824.00
98.3128 820.00
98.378 792.00
98.4432 798.00
98.5084 837.00
98.5736 813.00
98.6388 841.00
98.704 784.00
98.7692 774.00
98.8344 793.00
98.8996 845.00
98.9648 875.00
99.03 867.00
99.0952 827.00
99.1604 848.00
99.2256 837.00
99.2908 865.00
99.356 835.00
99.4212 831.00
99.4864 843.00
99.5516 869.00
99.6168 908.00
99.682 916.00
99.7472 851.00
99.8124 810.00
99.8776 818.00
99.9428 826.00
100.008 809.00
100.073 857.00
100.095 795.00