File: data/xrd_creation/results/PG_2240-1.xy
9.903433 2472.00
9.968632 2403.00
10.0338 2344.00
10.099 2460.00
10.1642 2438.00
10.2294 2320.00
10.2946 2268.00
10.3598 2305.00
10.425 2248.00
10.4902 2318.00
10.5554 2212.00
10.6206 2198.00
10.6858 2215.00
10.751 2154.00
10.8162 2226.00
10.8814 2125.00
10.9466 2219.00
11.0118 2085.00
11.077 2157.00
11.1422 2005.00
11.2074 2046.00
11.2726 2081.00
11.3378 2046.00
11.403 2052.00
11.4682 2044.00
11.5334 1973.00
11.5986 2004.00
11.6638 2066.00
11.729 1978.00
11.7942 1844.00
11.8594 1930.00
11.9246 1913.00
11.9898 1829.00
12.055 1884.00
12.1202 1801.00
12.1854 1729.00
12.2506 1939.00
12.3158 1811.00
12.381 1738.00
12.4462 1811.00
12.5114 1839.00
12.5766 1701.00
12.6418 1732.00
12.707 1717.00
12.7722 1711.00
12.8374 1801.00
12.9026 1675.00
12.9678 1701.00
13.033 1690.00
13.0982 1707.00
13.1634 1701.00
13.2286 1731.00
13.2938 1698.00
13.359 1679.00
13.4242 1645.00
13.4894 1743.00
13.5546 1604.00
13.6198 1658.00
13.685 1549.00
13.7502 1511.00
13.8154 1571.00
13.8805 1617.00
13.9457 1529.00
14.0109 1517.00
14.0761 1589.00
14.1413 1579.00
14.2065 1550.00
14.2717 1625.00
14.3369 1698.00
14.4021 1847.00
14.4673 1931.00
14.5325 2106.00
14.5977 2443.00
14.6629 1842.00
14.7281 1586.00
14.7933 1575.00
14.8585 1492.00
14.9237 1485.00
14.9889 1491.00
15.0541 1544.00
15.1193 1570.00
15.1845 1573.00
15.2497 1661.00
15.3149 1785.00
15.3801 1853.00
15.4453 2037.00
15.5105 1557.00
15.5757 1506.00
15.6409 1363.00
15.7061 1411.00
15.7713 1353.00
15.8365 1408.00
15.9017 1425.00
15.9669 1444.00
16.0321 1413.00
16.0973 1426.00
16.1625 1357.00
16.2277 1387.00
16.2929 1388.00
16.3581 1307.00
16.4233 1378.00
16.4885 1318.00
16.5537 1389.00
16.6189 1391.00
16.6841 1424.00
16.7493 1398.00
16.8145 1334.00
16.8797 1347.00
16.9449 1378.00
17.0101 1339.00
17.0753 1355.00
17.1405 1341.00
17.2057 1288.00
17.2709 1387.00
17.3361 1331.00
17.4013 1334.00
17.4665 1285.00
17.5317 1353.00
17.5969 1402.00
17.6621 1359.00
17.7273 1311.00
17.7925 1343.00
17.8577 1348.00
17.9229 1418.00
17.9881 1514.00
18.0533 1525.00
18.1185 1347.00
18.1837 1300.00
18.2489 1267.00
18.3141 1302.00
18.3793 1310.00
18.4445 1320.00
18.5097 1272.00
18.5749 1250.00
18.6401 1301.00
18.7052 1181.00
18.7704 1206.00
18.8356 1201.00
18.9008 1246.00
18.966 1273.00
19.0312 1208.00
19.0964 1170.00
19.1616 1230.00
19.2268 1181.00
19.292 1242.00
19.3572 1206.00
19.4224 1175.00
19.4876 1174.00
19.5528 1183.00
19.618 1216.00
19.6832 1170.00
19.7484 1202.00
19.8136 1215.00
19.8788 1104.00
19.944 1228.00
20.0092 1260.00
20.0744 1225.00
20.1396 1205.00
20.2048 1230.00
20.27 1310.00
20.3352 1291.00
20.4004 1224.00
20.4656 1309.00
20.5308 1238.00
20.596 1204.00
20.6612 1191.00
20.7264 1107.00
20.7916 1203.00
20.8568 1145.00
20.922 1183.00
20.9872 1191.00
21.0524 1200.00
21.1176 1169.00
21.1828 1199.00
21.248 1190.00
21.3132 1160.00
21.3784 1268.00
21.4436 1178.00
21.5088 1212.00
21.574 1321.00
21.6392 1403.00
21.7044 1747.00
21.7696 1544.00
21.8348 1200.00
21.9 1049.00
21.9652 1078.00
22.0304 1098.00
22.0956 1048.00
22.1608 1120.00
22.226 1088.00
22.2912 1088.00
22.3564 1109.00
22.4216 1136.00
22.4868 1159.00
22.552 1122.00
22.6172 1118.00
22.6824 1170.00
22.7476 1050.00
22.8128 1082.00
22.878 1062.00
22.9432 1058.00
23.0084 969.00
23.0736 973.00
23.1388 1015.00
23.204 1007.00
23.2692 1033.00
23.3344 981.00
23.3996 1036.00
23.4647 977.00
23.5299 1031.00
23.5951 982.00
23.6603 1064.00
23.7255 1073.00
23.7907 1116.00
23.8559 1026.00
23.9211 996.00
23.9863 1043.00
24.0515 983.00
24.1167 1000.00
24.1819 1078.00
24.2471 978.00
24.3123 1052.00
24.3775 1057.00
24.4427 992.00
24.5079 1061.00
24.5731 1126.00
24.6383 1106.00
24.7035 1118.00
24.7687 1193.00
24.8339 1208.00
24.8991 1207.00
24.9643 1158.00
25.0295 1228.00
25.0947 1167.00
25.1599 1194.00
25.2251 1106.00
25.2903 1105.00
25.3555 1053.00
25.4207 1013.00
25.4859 1040.00
25.5511 933.00
25.6163 1018.00
25.6815 995.00
25.7467 966.00
25.8119 1041.00
25.8771 1047.00
25.9423 1119.00
26.0075 1110.00
26.0727 1166.00
26.1379 1223.00
26.2031 1328.00
26.2683 1506.00
26.3335 1826.00
26.3987 2306.00
26.4639 3008.00
26.5291 4061.00
26.5943 5260.00
26.6595 6946.00
26.7247 7776.00
26.7899 7035.00
26.8551 4986.00
26.9203 3607.00
26.9855 2795.00
27.0507 2145.00
27.1159 1884.00
27.1811 1666.00
27.2463 1566.00
27.3115 1563.00
27.3767 1589.00
27.4419 1798.00
27.5071 2073.00
27.5723 1871.00
27.6375 1541.00
27.7027 1384.00
27.7679 1295.00
27.8331 1198.00
27.8983 1235.00
27.9635 1148.00
28.0287 1285.00
28.0939 1302.00
28.1591 1326.00
28.2243 1443.00
28.2894 1481.00
28.3546 1653.00
28.4198 1942.00
28.485 2107.00
28.5502 2371.00
28.6154 2666.00
28.6806 3015.00
28.7458 3659.00
28.811 4100.00
28.8762 4972.00
28.9414 5851.00
29.0066 6763.00
29.0718 6075.00
29.137 5377.00
29.2022 5123.00
29.2674 5847.00
29.3326 7542.00
29.3978 10830.00
29.463 13036.00
29.5282 10239.00
29.5934 6124.00
29.6586 3673.00
29.7238 2635.00
29.789 2373.00
29.8542 2034.00
29.9194 1651.00
29.9846 1431.00
30.0498 1245.00
30.115 1288.00
30.1802 1190.00
30.2454 1214.00
30.3106 1223.00
30.3758 1356.00
30.441 1407.00
30.5062 1793.00
30.5714 2625.00
30.6366 4413.00
30.7018 6287.00
30.767 4533.00
30.8322 2691.00
30.8974 2414.00
30.9626 2790.00
31.0278 3749.00
31.093 5477.00
31.1582 5786.00
31.2234 3796.00
31.2886 2006.00
31.3538 1507.00
31.419 1369.00
31.4842 1422.00
31.5494 1292.00
31.6146 1435.00
31.6798 1332.00
31.745 1345.00
31.8102 1576.00
31.8754 1721.00
31.9406 1950.00
32.0058 2600.00
32.071 3471.00
32.1362 4683.00
32.2014 5506.00
32.2666 4731.00
32.3318 4048.00
32.397 3597.00
32.4622 3558.00
32.5274 3204.00
32.5926 2860.00
32.6578 2411.00
32.723 2301.00
32.7882 2398.00
32.8534 2732.00
32.9186 3527.00
32.9838 3953.00
33.0489 3130.00
33.1141 2214.00
33.1793 1617.00
33.2445 1307.00
33.3097 1244.00
33.3749 1125.00
33.4401 1113.00
33.5053 1047.00
33.5705 984.00
33.6357 1013.00
33.7009 1061.00
33.7661 1026.00
33.8313 1028.00
33.8965 1157.00
33.9617 1200.00
34.0269 1259.00
34.0921 1449.00
34.1573 1779.00
34.2225 2080.00
34.2877 2588.00
34.3529 3012.00
34.4181 3261.00
34.4833 3048.00
34.5485 2446.00
34.6137 1852.00
34.6789 1521.00
34.7441 1262.00
34.8093 1155.00
34.8745 1028.00
34.9397 947.00
35.0049 883.00
35.0701 882.00
35.1353 878.00
35.2005 881.00
35.2657 863.00
35.3309 878.00
35.3961 845.00
35.4613 891.00
35.5265 850.00
35.5917 910.00
35.6569 919.00
35.7221 911.00
35.7873 1046.00
35.8525 1084.00
35.9177 1261.00
35.9829 1447.00
36.0481 1677.00
36.1133 1706.00
36.1785 1467.00
36.2437 1280.00
36.3089 1157.00
36.3741 1138.00
36.4393 1263.00
36.5045 1003.00
36.5697 895.00
36.6349 871.00
36.7001 792.00
36.7653 793.00
36.8305 822.00
36.8957 846.00
36.9609 852.00
37.0261 894.00
37.0913 893.00
37.1565 1041.00
37.2217 947.00
37.2869 1138.00
37.3521 1135.00
37.4173 965.00
37.4825 870.00
37.5477 805.00
37.6129 776.00
37.6781 780.00
37.7433 814.00
37.8085 794.00
37.8736 827.00
37.9388 981.00
38.004 1073.00
38.0692 1608.00
38.1344 2369.00
38.1996 2701.00
38.2648 2208.00
38.33 1503.00
38.3952 1069.00
38.4604 803.00
38.5256 773.00
38.5908 773.00
38.656 715.00
38.7212 726.00
38.7864 712.00
38.8516 674.00
38.9168 666.00
38.982 676.00
39.0472 674.00
39.1124 708.00
39.1776 711.00
39.2428 687.00
39.308 706.00
39.3732 739.00
39.4384 731.00
39.5036 791.00
39.5688 922.00
39.634 1014.00
39.6992 1037.00
39.7644 1040.00
39.8296 1098.00
39.8948 1218.00
39.96 1173.00
40.0252 1080.00
40.0904 1087.00
40.1556 1286.00
40.2208 1502.00
40.286 1341.00
40.3512 1131.00
40.4164 911.00
40.4816 843.00
40.5468 790.00
40.612 794.00
40.6772 710.00
40.7424 835.00
40.8076 814.00
40.8728 778.00
40.938 735.00
41.0032 719.00
41.0684 773.00
41.1336 772.00
41.1988 837.00
41.264 783.00
41.3292 781.00
41.3944 793.00
41.4596 692.00
41.5248 669.00
41.59 672.00
41.6552 661.00
41.7204 678.00
41.7856 674.00
41.8508 671.00
41.916 635.00
41.9812 688.00
42.0464 660.00
42.1116 658.00
42.1768 631.00
42.242 668.00
42.3072 672.00
42.3724 678.00
42.4376 693.00
42.5028 699.00
42.568 699.00
42.6332 748.00
42.6983 768.00
42.7635 743.00
42.8287 716.00
42.8939 773.00
42.9591 794.00
43.0243 804.00
43.0895 801.00
43.1547 743.00
43.2199 743.00
43.2851 724.00
43.3503 749.00
43.4155 754.00
43.4807 720.00
43.5459 773.00
43.6111 735.00
43.6763 724.00
43.7415 824.00
43.8067 930.00
43.8719 924.00
43.9371 907.00
44.0023 862.00
44.0675 848.00
44.1327 783.00
44.1979 879.00
44.2631 857.00
44.3283 966.00
44.3935 950.00
44.4587 996.00
44.5239 1019.00
44.5891 1084.00
44.6543 1105.00
44.7195 1153.00
44.7847 1183.00
44.8499 1219.00
44.9151 1226.00
44.9803 1225.00
45.0455 1278.00
45.1107 1233.00
45.1759 1286.00
45.2411 1360.00
45.3063 1554.00
45.3715 1795.00
45.4367 2118.00
45.5019 2146.00
45.5671 2005.00
45.6323 1847.00
45.6975 1565.00
45.7627 1445.00
45.8279 1297.00
45.8931 1270.00
45.9583 1268.00
46.0235 1243.00
46.0887 1194.00
46.1539 1263.00
46.2191 1330.00
46.2843 1406.00
46.3495 1568.00
46.4147 1604.00
46.4799 1622.00
46.5451 1734.00
46.6103 1570.00
46.6755 1447.00
46.7407 1235.00
46.8059 1144.00
46.8711 1061.00
46.9363 1038.00
47.0015 1019.00
47.0667 935.00
47.1319 917.00
47.1971 877.00
47.2623 873.00
47.3275 842.00
47.3927 909.00
47.4579 886.00
47.523 957.00
47.5882 1086.00
47.6534 1323.00
47.7186 1784.00
47.7838 2273.00
47.849 2558.00
47.9142 2285.00
47.9794 1892.00
48.0446 1430.00
48.1098 1118.00
48.175 1039.00
48.2402 932.00
48.3054 917.00
48.3706 985.00
48.4358 941.00
48.501 1001.00
48.5662 1056.00
48.6314 1162.00
48.6966 1381.00
48.7618 1659.00
48.827 1947.00
48.8922 2247.00
48.9574 2364.00
49.0226 2344.00
49.0878 2067.00
49.153 1868.00
49.2182 1605.00
49.2834 1473.00
49.3486 1512.00
49.4138 1565.00
49.479 1944.00
49.5442 2307.00
49.6094 2415.00
49.6746 2109.00
49.7398 1868.00
49.805 1553.00
49.8702 1431.00
49.9354 1500.00
50.0006 1512.00
50.0658 1615.00
50.131 1639.00
50.1962 1521.00
50.2614 1582.00
50.3266 1401.00
50.3918 1314.00
50.457 1262.00
50.5222 1197.00
50.5874 1091.00
50.6526 1078.00
50.7178 996.00
50.783 1082.00
50.8482 1065.00
50.9134 1105.00
50.9786 1280.00
51.0438 1714.00
51.109 2318.00
51.1742 2019.00
51.2394 1812.00
51.3046 1502.00
51.3698 1100.00
51.435 932.00
51.5002 904.00
51.5654 792.00
51.6306 810.00
51.6958 752.00
51.761 784.00
51.8262 800.00
51.8914 765.00
51.9566 795.00
52.0218 885.00
52.087 871.00
52.1522 1098.00
52.2174 1259.00
52.2826 1864.00
52.3477 3044.00
52.4129 3846.00
52.4781 3016.00
52.5433 2757.00
52.6085 1852.00
52.6737 1323.00
52.7389 1087.00
52.8041 998.00
52.8693 976.00
52.9345 941.00
52.9997 943.00
53.0649 1017.00
53.1301 1056.00
53.1953 1272.00
53.2605 1505.00
53.3257 1903.00
53.3909 2486.00
53.4561 2803.00
53.5213 2549.00
53.5865 2297.00
53.6517 1856.00
53.7169 1472.00
53.7821 1260.00
53.8473 1131.00
53.9125 1073.00
53.9777 1029.00
54.0429 1095.00
54.1081 1054.00
54.1733 1088.00
54.2385 1071.00
54.3037 1076.00
54.3689 1160.00
54.4341 1083.00
54.4993 1194.00
54.5645 1218.00
54.6297 1140.00
54.6949 1252.00
54.7601 1309.00
54.8253 1358.00
54.8905 1414.00
54.9557 1443.00
55.0209 1385.00
55.0861 1520.00
55.1513 1458.00
55.2165 1399.00
55.2817 1343.00
55.3469 1305.00
55.4121 1207.00
55.4773 1163.00
55.5425 1117.00
55.6077 1140.00
55.6729 1074.00
55.7381 1089.00
55.8033 1044.00
55.8685 1080.00
55.9337 1074.00
55.9989 1136.00
56.0641 1167.00
56.1293 1413.00
56.1945 1628.00
56.2597 2249.00
56.3249 2872.00
56.3901 2627.00
56.4553 2444.00
56.5205 1898.00
56.5857 1541.00
56.6509 1273.00
56.7161 1167.00
56.7813 1033.00
56.8465 963.00
56.9117 944.00
56.9769 861.00
57.042 841.00
57.1073 884.00
57.1724 885.00
57.2376 881.00
57.3028 835.00
57.368 767.00
57.4332 830.00
57.4984 794.00
57.5636 820.00
57.6288 830.00
57.694 925.00
57.7592 933.00
57.8244 874.00
57.8896 991.00
57.9548 1010.00
58.02 1093.00
58.0852 1192.00
58.1504 1165.00
58.2156 1174.00
58.2808 1220.00
58.346 1243.00
58.4112 1305.00
58.4764 1223.00
58.5416 1176.00
58.6068 1149.00
58.672 1124.00
58.7372 1025.00
58.8024 1024.00
58.8676 1042.00
58.9328 968.00
58.998 999.00
59.0632 970.00
59.1284 1018.00
59.1936 1014.00
59.2588 1079.00
59.324 1059.00
59.3892 1134.00
59.4544 1188.00
59.5196 1371.00
59.5848 1585.00
59.65 1489.00
59.7152 1467.00
59.7804 1450.00
59.8456 1333.00
59.9108 1343.00
59.976 1278.00
60.0412 1363.00
60.1064 1515.00
60.1716 1515.00
60.2368 1587.00
60.302 1717.00
60.3672 1652.00
60.4324 1626.00
60.4976 1802.00
60.5628 2038.00
60.628 2126.00
60.6932 2087.00
60.7584 1964.00
60.8236 1716.00
60.8888 1588.00
60.954 1359.00
61.0192 1289.00
61.0844 1105.00
61.1496 1080.00
61.2148 1059.00
61.28 979.00
61.3452 988.00
61.4104 976.00
61.4756 1060.00
61.5408 1020.00
61.606 939.00
61.6712 951.00
61.7364 853.00
61.8016 879.00
61.8667 818.00
61.932 813.00
61.9971 742.00
62.0623 709.00
62.1275 696.00
62.1927 685.00
62.2579 681.00
62.3231 711.00
62.3883 693.00
62.4535 714.00
62.5187 689.00
62.5839 666.00
62.6491 719.00
62.7143 687.00
62.7795 724.00
62.8447 743.00
62.9099 793.00
62.9751 832.00
63.0403 909.00
63.1055 971.00
63.1707 1122.00
63.2359 1345.00
63.3011 1650.00
63.3663 1957.00
63.4315 1864.00
63.4967 1698.00
63.5619 1472.00
63.6271 1140.00
63.6923 1019.00
63.7575 915.00
63.8227 895.00
63.8879 803.00
63.9531 828.00
64.0183 728.00
64.0835 759.00
64.1487 741.00
64.2139 775.00
64.2791 816.00
64.3443 937.00
64.4095 967.00
64.4747 822.00
64.5399 831.00
64.6051 855.00
64.6703 733.00
64.7355 697.00
64.8007 670.00
64.8659 682.00
64.9311 680.00
64.9963 704.00
65.0615 663.00
65.1267 645.00
65.1919 657.00
65.2571 701.00
65.3223 739.00
65.3875 647.00
65.4527 659.00
65.5179 683.00
65.5831 633.00
65.6483 674.00
65.7135 669.00
65.7787 754.00
65.8439 753.00
65.9091 794.00
65.9743 817.00
66.0395 887.00
66.1047 914.00
66.1699 1083.00
66.2351 1247.00
66.3003 1459.00
66.3655 1305.00
66.4307 1332.00
66.4959 1189.00
66.561 1143.00
66.6263 1026.00
66.6915 1026.00
66.7566 1014.00
66.8218 960.00
66.887 957.00
66.9522 849.00
67.0174 841.00
67.0826 752.00
67.1478 743.00
67.213 688.00
67.2782 681.00
67.3434 655.00
67.4086 662.00
67.4738 674.00
67.539 632.00
67.6042 630.00
67.6694 597.00
67.7346 639.00
67.7998 636.00
67.865 578.00
67.9302 609.00
67.9954 633.00
68.0606 618.00
68.1258 634.00
68.191 587.00
68.2562 664.00
68.3214 660.00
68.3866 681.00
68.4518 755.00
68.517 805.00
68.5822 854.00
68.6474 805.00
68.7126 801.00
68.7778 799.00
68.843 708.00
68.9082 751.00
68.9734 689.00
69.0386 780.00
69.1038 883.00
69.169 857.00
69.2342 770.00
69.2994 787.00
69.3646 759.00
69.4298 719.00
69.495 734.00
69.5602 666.00
69.6254 639.00
69.6906 680.00
69.7558 729.00
69.821 666.00
69.8862 729.00
69.9514 810.00
70.0166 837.00
70.0818 826.00
70.147 785.00
70.2122 732.00
70.2774 785.00
70.3426 652.00
70.4078 639.00
70.473 672.00
70.5382 694.00
70.6034 656.00
70.6686 614.00
70.7338 624.00
70.799 677.00
70.8642 628.00
70.9294 641.00
70.9946 611.00
71.0598 600.00
71.125 678.00
71.1902 605.00
71.2554 689.00
71.3205 690.00
71.3858 663.00
71.451 729.00
71.5162 650.00
71.5813 745.00
71.6465 719.00
71.7117 680.00
71.7769 708.00
71.8421 697.00
71.9073 733.00
71.9725 778.00
72.0377 740.00
72.1029 804.00
72.1681 805.00
72.2333 873.00
72.2985 875.00
72.3637 849.00
72.4289 821.00
72.4941 819.00
72.5593 841.00
72.6245 785.00
72.6897 779.00
72.7549 781.00
72.8201 833.00
72.8853 821.00
72.9505 819.00
73.0157 847.00
73.0809 863.00
73.1461 888.00
73.2113 893.00
73.2765 933.00
73.3417 893.00
73.4069 916.00
73.4721 930.00
73.5373 873.00
73.6025 939.00
73.6677 1033.00
73.7329 1058.00
73.7981 1008.00
73.8633 1066.00
73.9285 980.00
73.9937 963.00
74.0589 956.00
74.1241 906.00
74.1893 871.00
74.2545 882.00
74.3197 845.00
74.3849 782.00
74.4501 837.00
74.5153 767.00
74.5805 757.00
74.6457 764.00
74.7109 783.00
74.7761 747.00
74.8413 767.00
74.9065 768.00
74.9717 718.00
75.0369 744.00
75.1021 801.00
75.1673 743.00
75.2325 805.00
75.2977 864.00
75.3629 855.00
75.4281 873.00
75.4933 868.00
75.5585 972.00
75.6237 913.00
75.6889 1011.00
75.7541 969.00
75.8193 965.00
75.8845 903.00
75.9497 875.00
76.0149 906.00
76.0801 876.00
76.1452 1026.00
76.2104 967.00
76.2756 1022.00
76.3409 1007.00
76.406 919.00
76.4712 1009.00
76.5364 1006.00
76.6016 1135.00
76.6668 1226.00
76.732 1117.00
76.7972 1042.00
76.8624 1029.00
76.9276 1051.00
76.9928 935.00
77.058 837.00
77.1232 757.00
77.1884 733.00
77.2536 712.00
77.3188 734.00
77.384 684.00
77.4492 709.00
77.5144 655.00
77.5796 683.00
77.6448 716.00
77.71 717.00
77.7752 709.00
77.8404 759.00
77.9056 721.00
77.9708 797.00
78.036 816.00
78.1012 840.00
78.1664 866.00
78.2316 909.00
78.2968 897.00
78.362 907.00
78.4272 864.00
78.4924 938.00
78.5576 883.00
78.6228 900.00
78.688 923.00
78.7532 845.00
78.8184 823.00
78.8836 899.00
78.9488 838.00
79.014 762.00
79.0792 789.00
79.1444 743.00
79.2096 718.00
79.2748 751.00
79.34 740.00
79.4052 735.00
79.4704 817.00
79.5356 757.00
79.6008 816.00
79.666 852.00
79.7312 897.00
79.7964 926.00
79.8616 978.00
79.9268 1009.00
79.992 980.00
80.0572 991.00
80.1224 977.00
80.1876 924.00
80.2528 792.00
80.318 777.00
80.3832 771.00
80.4484 785.00
80.5136 701.00
80.5788 754.00
80.644 677.00
80.7092 700.00
80.7744 738.00
80.8396 802.00
80.9048 805.00
80.9699 870.00
81.0351 855.00
81.1003 936.00
81.1655 869.00
81.2307 881.00
81.2959 847.00
81.3611 852.00
81.4263 746.00
81.4915 744.00
81.5567 685.00
81.6219 673.00
81.6871 704.00
81.7523 733.00
81.8175 727.00
81.8827 710.00
81.9479 772.00
82.0131 731.00
82.0783 775.00
82.1435 852.00
82.2087 925.00
82.2739 1006.00
82.3391 1049.00
82.4043 956.00
82.4695 895.00
82.5347 932.00
82.5999 865.00
82.6651 849.00
82.7303 843.00
82.7955 800.00
82.8607 860.00
82.9259 826.00
82.9911 896.00
83.0563 927.00
83.1215 898.00
83.1867 888.00
83.2519 878.00
83.3171 867.00
83.3823 892.00
83.4475 833.00
83.5127 842.00
83.5779 780.00
83.6431 856.00
83.7083 752.00
83.7735 806.00
83.8387 840.00
83.9039 792.00
83.9691 850.00
84.0343 848.00
84.0995 816.00
84.1647 864.00
84.2299 816.00
84.2951 846.00
84.3603 833.00
84.4255 881.00
84.4907 972.00
84.5559 931.00
84.6211 959.00
84.6863 990.00
84.7515 972.00
84.8167 991.00
84.8819 1004.00
84.9471 1002.00
85.0123 901.00
85.0775 935.00
85.1427 962.00
85.2079 939.00
85.2731 959.00
85.3383 977.00
85.4035 977.00
85.4687 876.00
85.5339 885.00
85.5991 862.00
85.6643 817.00
85.7295 861.00
85.7946 843.00
85.8598 834.00
85.925 754.00
85.9903 836.00
86.0554 841.00
86.1206 865.00
86.1858 971.00
86.251 997.00
86.3162 922.00
86.3814 880.00
86.4466 890.00
86.5118 918.00
86.577 914.00
86.6422 803.00
86.7074 822.00
86.7726 799.00
86.8378 825.00
86.903 838.00
86.9682 814.00
87.0334 872.00
87.0986 952.00
87.1638 949.00
87.229 1027.00
87.2942 1025.00
87.3594 955.00
87.4246 956.00
87.4898 956.00
87.555 940.00
87.6202 947.00
87.6854 860.00
87.7506 883.00
87.8158 888.00
87.881 864.00
87.9462 823.00
88.0114 854.00
88.0766 787.00
88.1418 790.00
88.207 805.00
88.2722 819.00
88.3374 750.00
88.4026 736.00
88.4678 710.00
88.533 771.00
88.5982 706.00
88.6634 763.00
88.7286 819.00
88.7938 822.00
88.859 897.00
88.9242 890.00
88.9894 907.00
89.0546 882.00
89.1198 874.00
89.185 901.00
89.2502 839.00
89.3154 863.00
89.3806 796.00
89.4458 786.00
89.511 785.00
89.5762 792.00
89.6414 768.00
89.7066 770.00
89.7718 785.00
89.837 761.00
89.9022 778.00
89.9674 792.00
90.0326 784.00
90.0978 832.00
90.163 913.00
90.2282 822.00
90.2934 837.00
90.3586 810.00
90.4238 793.00
90.489 773.00
90.5542 758.00
90.6193 759.00
90.6845 685.00
90.7497 775.00
90.8149 735.00
90.8801 707.00
90.9453 748.00
91.0105 765.00
91.0757 772.00
91.1409 749.00
91.2061 734.00
91.2713 785.00
91.3365 838.00
91.4017 851.00
91.4669 893.00
91.5321 891.00
91.5973 821.00
91.6625 811.00
91.7277 747.00
91.7929 893.00
91.8581 777.00
91.9233 745.00
91.9885 696.00
92.0537 772.00
92.1189 716.00
92.1841 680.00
92.2493 738.00
92.3145 708.00
92.3797 677.00
92.4449 697.00
92.5101 719.00
92.5753 732.00
92.6405 710.00
92.7057 757.00
92.7709 734.00
92.8361 759.00
92.9013 748.00
92.9665 741.00
93.0317 705.00
93.0969 716.00
93.1621 788.00
93.2273 789.00
93.2925 811.00
93.3577 784.00
93.4229 724.00
93.4881 824.00
93.5533 787.00
93.6185 798.00
93.6837 803.00
93.7489 751.00
93.8141 757.00
93.8793 775.00
93.9445 772.00
94.0097 798.00
94.0749 786.00
94.1401 715.00
94.2053 860.00
94.2705 823.00
94.3357 803.00
94.4009 813.00
94.4661 719.00
94.5313 767.00
94.5965 780.00
94.6617 703.00
94.7269 719.00
94.7921 750.00
94.8573 648.00
94.9225 636.00
94.9877 631.00
95.0529 640.00
95.1181 649.00
95.1833 605.00
95.2485 580.00
95.3137 599.00
95.3789 624.00
95.444 569.00
95.5092 632.00
95.5744 582.00
95.6396 588.00
95.7048 621.00
95.77 608.00
95.8352 665.00
95.9004 649.00
95.9656 694.00
96.0308 643.00
96.096 676.00
96.1612 654.00
96.2264 710.00
96.2916 692.00
96.3568 671.00
96.422 579.00
96.4872 707.00
96.5524 635.00
96.6176 632.00
96.6828 640.00
96.748 614.00
96.8132 643.00
96.8784 661.00
96.9436 609.00
97.0088 628.00
97.074 686.00
97.1392 671.00
97.2044 667.00
97.2696 658.00
97.3348 722.00
97.4 663.00
97.4652 705.00
97.5304 694.00
97.5956 753.00
97.6608 807.00
97.726 785.00
97.7912 863.00
97.8564 872.00
97.9216 849.00
97.9868 929.00
98.052 942.00
98.1172 899.00
98.1824 846.00
98.2476 866.00
98.3128 829.00
98.378 773.00
98.4432 767.00
98.5084 758.00
98.5736 695.00
98.6388 709.00
98.704 688.00
98.7692 667.00
98.8344 669.00
98.8996 652.00
98.9648 660.00
99.03 655.00
99.0952 637.00
99.1604 602.00
99.2256 633.00
99.2908 692.00
99.356 626.00
99.4212 613.00
99.4864 606.00
99.5516 613.00
99.6168 607.00
99.682 590.00
99.7472 659.00
99.8124 610.00
99.8776 658.00
99.9428 647.00
100.008 646.00
100.073 623.00
100.095 631.00