File: data/xrd_creation/results/PG_2048-1.xy
9.903433 2724.00
9.968632 2810.00
10.0338 2777.00
10.099 2692.00
10.1642 2652.00
10.2294 2608.00
10.2946 2653.00
10.3598 2566.00
10.425 2654.00
10.4902 2558.00
10.5554 2628.00
10.6206 2561.00
10.6858 2590.00
10.751 2575.00
10.8162 2560.00
10.8814 2496.00
10.9466 2468.00
11.0118 2471.00
11.077 2388.00
11.1422 2447.00
11.2074 2392.00
11.2726 2400.00
11.3378 2423.00
11.403 2427.00
11.4682 2296.00
11.5334 2343.00
11.5986 2206.00
11.6638 2299.00
11.729 2227.00
11.7942 2236.00
11.8594 2216.00
11.9246 2213.00
11.9898 2196.00
12.055 2262.00
12.1202 2129.00
12.1854 2170.00
12.2506 2094.00
12.3158 2211.00
12.381 2096.00
12.4462 2111.00
12.5114 2141.00
12.5766 2067.00
12.6418 2076.00
12.707 1977.00
12.7722 1963.00
12.8374 2083.00
12.9026 1958.00
12.9678 1917.00
13.033 2013.00
13.0982 1913.00
13.1634 1939.00
13.2286 1873.00
13.2938 1898.00
13.359 1911.00
13.4242 1837.00
13.4894 1922.00
13.5546 1919.00
13.6198 1941.00
13.685 1817.00
13.7502 1827.00
13.8154 1847.00
13.8805 1809.00
13.9457 1847.00
14.0109 1782.00
14.0761 1774.00
14.1413 1892.00
14.2065 1799.00
14.2717 1792.00
14.3369 1785.00
14.4021 1703.00
14.4673 1745.00
14.5325 1777.00
14.5977 1817.00
14.6629 1781.00
14.7281 1638.00
14.7933 1667.00
14.8585 1668.00
14.9237 1671.00
14.9889 1742.00
15.0541 1652.00
15.1193 1764.00
15.1845 1744.00
15.2497 1795.00
15.3149 1783.00
15.3801 1797.00
15.4453 1855.00
15.5105 2038.00
15.5757 2357.00
15.6409 2825.00
15.7061 3394.00
15.7713 3064.00
15.8365 2153.00
15.9017 1811.00
15.9669 1719.00
16.0321 1645.00
16.0973 1647.00
16.1625 1705.00
16.2277 1600.00
16.2929 1676.00
16.3581 1610.00
16.4233 1616.00
16.4885 1614.00
16.5537 1675.00
16.6189 1599.00
16.6841 1517.00
16.7493 1577.00
16.8145 1515.00
16.8797 1580.00
16.9449 1550.00
17.0101 1547.00
17.0753 1541.00
17.1405 1534.00
17.2057 1578.00
17.2709 1570.00
17.3361 1479.00
17.4013 1540.00
17.4665 1690.00
17.5317 1834.00
17.5969 2169.00
17.6621 2628.00
17.7273 3510.00
17.7925 2917.00
17.8577 1798.00
17.9229 1576.00
17.9881 1481.00
18.0533 1494.00
18.1185 1458.00
18.1837 1490.00
18.2489 1406.00
18.3141 1488.00
18.3793 1409.00
18.4445 1423.00
18.5097 1397.00
18.5749 1446.00
18.6401 1411.00
18.7052 1392.00
18.7704 1426.00
18.8356 1387.00
18.9008 1447.00
18.966 1370.00
19.0312 1399.00
19.0964 1346.00
19.1616 1402.00
19.2268 1399.00
19.292 1371.00
19.3572 1396.00
19.4224 1317.00
19.4876 1356.00
19.5528 1336.00
19.618 1358.00
19.6832 1297.00
19.7484 1312.00
19.8136 1383.00
19.8788 1341.00
19.944 1406.00
20.0092 1396.00
20.0744 1476.00
20.1396 1485.00
20.2048 1549.00
20.27 1616.00
20.3352 1887.00
20.4004 2258.00
20.4656 2845.00
20.5308 4182.00
20.596 5347.00
20.6612 5053.00
20.7264 3263.00
20.7916 1945.00
20.8568 1562.00
20.922 1484.00
20.9872 1436.00
21.0524 1310.00
21.1176 1298.00
21.1828 1275.00
21.248 1241.00
21.3132 1257.00
21.3784 1215.00
21.4436 1247.00
21.5088 1237.00
21.574 1308.00
21.6392 1281.00
21.7044 1364.00
21.7696 1384.00
21.8348 1433.00
21.9 1706.00
21.9652 2016.00
22.0304 2474.00
22.0956 2329.00
22.1608 1778.00
22.226 1446.00
22.2912 1262.00
22.3564 1217.00
22.4216 1193.00
22.4868 1175.00
22.552 1133.00
22.6172 1119.00
22.6824 1192.00
22.7476 1091.00
22.8128 1134.00
22.878 1119.00
22.9432 1176.00
23.0084 1150.00
23.0736 1057.00
23.1388 1095.00
23.204 1087.00
23.2692 1093.00
23.3344 1087.00
23.3996 1134.00
23.4647 1154.00
23.5299 1179.00
23.5951 1189.00
23.6603 1165.00
23.7255 1277.00
23.7907 1280.00
23.8559 1425.00
23.9211 1627.00
23.9863 2405.00
24.0515 4147.00
24.1167 8475.00
24.1819 15044.00
24.2471 11084.00
24.3123 3511.00
24.3775 1516.00
24.4427 1299.00
24.5079 1233.00
24.5731 1154.00
24.6383 1131.00
24.7035 1080.00
24.7687 1074.00
24.8339 1122.00
24.8991 1117.00
24.9643 1129.00
25.0295 1030.00
25.0947 1046.00
25.1599 1058.00
25.2251 1032.00
25.2903 1082.00
25.3555 1027.00
25.4207 1004.00
25.4859 1085.00
25.5511 1036.00
25.6163 1064.00
25.6815 1109.00
25.7467 1131.00
25.8119 1182.00
25.8771 1229.00
25.9423 1275.00
26.0075 1179.00
26.0727 1131.00
26.1379 1119.00
26.2031 1233.00
26.2683 1525.00
26.3335 2218.00
26.3987 3552.00
26.4639 5011.00
26.5291 4028.00
26.5943 1990.00
26.6595 1255.00
26.7247 1059.00
26.7899 1052.00
26.8551 1026.00
26.9203 1024.00
26.9855 955.00
27.0507 979.00
27.1159 1032.00
27.1811 983.00
27.2463 919.00
27.3115 974.00
27.3767 971.00
27.4419 996.00
27.5071 970.00
27.5723 1011.00
27.6375 943.00
27.7027 971.00
27.7679 916.00
27.8331 1002.00
27.8983 987.00
27.9635 960.00
28.0287 1002.00
28.0939 929.00
28.1591 951.00
28.2243 978.00
28.2894 959.00
28.3546 1023.00
28.4198 932.00
28.485 948.00
28.5502 1048.00
28.6154 929.00
28.6806 969.00
28.7458 906.00
28.811 975.00
28.8762 929.00
28.9414 919.00
29.0066 918.00
29.0718 906.00
29.137 891.00
29.2022 999.00
29.2674 896.00
29.3326 878.00
29.3978 912.00
29.463 891.00
29.5282 983.00
29.5934 1010.00
29.6586 945.00
29.7238 993.00
29.789 1006.00
29.8542 1213.00
29.9194 1530.00
29.9846 2350.00
30.0498 2400.00
30.115 1628.00
30.1802 1115.00
30.2454 1005.00
30.3106 1037.00
30.3758 1075.00
30.441 998.00
30.5062 987.00
30.5714 1107.00
30.6366 1018.00
30.7018 1100.00
30.767 1257.00
30.8322 1660.00
30.8974 2909.00
30.9626 6370.00
31.0278 12330.00
31.093 10404.00
31.1582 5666.00
31.2234 2767.00
31.2886 3225.00
31.3538 3822.00
31.419 3345.00
31.4842 2218.00
31.5494 1452.00
31.6146 1069.00
31.6798 1050.00
31.745 987.00
31.8102 990.00
31.8754 840.00
31.9406 875.00
32.0058 907.00
32.071 885.00
32.1362 847.00
32.2014 887.00
32.2666 843.00
32.3318 910.00
32.397 912.00
32.4622 1060.00
32.5274 1051.00
32.5926 1468.00
32.6578 1964.00
32.723 1878.00
32.7882 1499.00
32.8534 1064.00
32.9186 861.00
32.9838 842.00
33.0489 771.00
33.1141 870.00
33.1793 773.00
33.2445 737.00
33.3097 762.00
33.3749 775.00
33.4401 789.00
33.5053 944.00
33.5705 946.00
33.6357 1184.00
33.7009 1030.00
33.7661 929.00
33.8313 836.00
33.8965 789.00
33.9617 806.00
34.0269 829.00
34.0921 824.00
34.1573 1078.00
34.2225 1750.00
34.2877 3266.00
34.3529 3575.00
34.4181 2293.00
34.4833 1332.00
34.5485 1584.00
34.6137 2265.00
34.6789 2020.00
34.7441 1485.00
34.8093 941.00
34.8745 849.00
34.9397 756.00
35.0049 739.00
35.0701 705.00
35.1353 653.00
35.2005 666.00
35.2657 748.00
35.3309 729.00
35.3961 794.00
35.4613 1116.00
35.5265 1692.00
35.5917 1414.00
35.6569 1073.00
35.7221 778.00
35.7873 624.00
35.8525 722.00
35.9177 696.00
35.9829 685.00
36.0481 651.00
36.1133 632.00
36.1785 655.00
36.2437 707.00
36.3089 780.00
36.3741 722.00
36.4393 755.00
36.5045 682.00
36.5697 603.00
36.6349 640.00
36.7001 602.00
36.7653 552.00
36.8305 645.00
36.8957 614.00
36.9609 593.00
37.0261 593.00
37.0913 617.00
37.1565 584.00
37.2217 603.00
37.2869 584.00
37.3521 646.00
37.4173 620.00
37.4825 598.00
37.5477 640.00
37.6129 655.00
37.6781 635.00
37.7433 721.00
37.8085 695.00
37.8736 607.00
37.9388 572.00
38.004 580.00
38.0692 580.00
38.1344 592.00
38.1996 609.00
38.2648 600.00
38.33 640.00
38.3952 762.00
38.4604 1039.00
38.5256 977.00
38.5908 953.00
38.656 1063.00
38.7212 2052.00
38.7864 2100.00
38.8516 1470.00
38.9168 818.00
38.982 592.00
39.0472 589.00
39.1124 603.00
39.1776 592.00
39.2428 602.00
39.308 562.00
39.3732 584.00
39.4384 552.00
39.5036 558.00
39.5688 573.00
39.634 545.00
39.6992 588.00
39.7644 554.00
39.8296 493.00
39.8948 562.00
39.96 570.00
40.0252 533.00
40.0904 506.00
40.1556 509.00
40.2208 522.00
40.286 576.00
40.3512 510.00
40.4164 579.00
40.4816 592.00
40.5468 561.00
40.612 579.00
40.6772 576.00
40.7424 582.00
40.8076 614.00
40.8728 881.00
40.938 1225.00
41.0032 949.00
41.0684 811.00
41.1336 575.00
41.1988 555.00
41.264 632.00
41.3292 668.00
41.3944 683.00
41.4596 803.00
41.5248 970.00
41.59 1115.00
41.6552 947.00
41.7204 847.00
41.7856 688.00
41.8508 592.00
41.916 576.00
41.9812 543.00
42.0464 580.00
42.1116 588.00
42.1768 629.00
42.242 663.00
42.3072 723.00
42.3724 747.00
42.4376 670.00
42.5028 639.00
42.568 542.00
42.6332 536.00
42.6983 525.00
42.7635 508.00
42.8287 535.00
42.8939 537.00
42.9591 502.00
43.0243 459.00
43.0895 503.00
43.1547 495.00
43.2199 503.00
43.2851 522.00
43.3503 513.00
43.4155 476.00
43.4807 467.00
43.5459 495.00
43.6111 514.00
43.6763 519.00
43.7415 512.00
43.8067 510.00
43.8719 493.00
43.9371 496.00
44.0023 502.00
44.0675 557.00
44.1327 497.00
44.1979 469.00
44.2631 516.00
44.3283 504.00
44.3935 494.00
44.4587 515.00
44.5239 548.00
44.5891 516.00
44.6543 494.00
44.7195 511.00
44.7847 532.00
44.8499 543.00
44.9151 514.00
44.9803 528.00
45.0455 505.00
45.1107 511.00
45.1759 526.00
45.2411 544.00
45.3063 503.00
45.3715 524.00
45.4367 542.00
45.5019 557.00
45.5671 639.00
45.6323 690.00
45.6975 879.00
45.7627 1104.00
45.8279 1101.00
45.8931 984.00
45.9583 1126.00
46.0235 1889.00
46.0887 1799.00
46.1539 1428.00
46.2191 983.00
46.2843 693.00
46.3495 713.00
46.4147 669.00
46.4799 697.00
46.5451 778.00
46.6103 1028.00
46.6755 2043.00
46.7407 5652.00
46.8059 6024.00
46.8711 3808.00
46.9363 2520.00
47.0015 842.00
47.0667 715.00
47.1319 604.00
47.1971 611.00
47.2623 592.00
47.3275 627.00
47.3927 587.00
47.4579 595.00
47.523 724.00
47.5882 969.00
47.6534 1333.00
47.7186 1199.00
47.7838 1106.00
47.849 946.00
47.9142 1043.00
47.9794 1161.00
48.0446 1010.00
48.1098 1086.00
48.175 933.00
48.2402 766.00
48.3054 749.00
48.3706 627.00
48.4358 599.00
48.501 542.00
48.5662 518.00
48.6314 547.00
48.6966 500.00
48.7618 478.00
48.827 494.00
48.8922 571.00
48.9574 575.00
49.0226 762.00
49.0878 911.00
49.153 1064.00
49.2182 891.00
49.2834 784.00
49.3486 622.00
49.4138 587.00
49.479 571.00
49.5442 468.00
49.6094 487.00
49.6746 480.00
49.7398 580.00
49.805 551.00
49.8702 589.00
49.9354 515.00
50.0006 515.00
50.0658 475.00
50.131 454.00
50.1962 445.00
50.2614 457.00
50.3266 454.00
50.3918 437.00
50.457 438.00
50.5222 432.00
50.5874 508.00
50.6526 445.00
50.7178 459.00
50.783 479.00
50.8482 452.00
50.9134 462.00
50.9786 422.00
51.0438 454.00
51.109 490.00
51.1742 487.00
51.2394 547.00
51.3046 579.00
51.3698 798.00
51.435 1178.00
51.5002 1565.00
51.5654 1067.00
51.6306 1004.00
51.6958 738.00
51.761 583.00
51.8262 521.00
51.8914 546.00
51.9566 538.00
52.0218 504.00
52.087 499.00
52.1522 491.00
52.2174 564.00
52.2826 798.00
52.3477 766.00
52.4129 708.00
52.4781 718.00
52.5433 702.00
52.6085 526.00
52.6737 565.00
52.7389 574.00
52.8041 567.00
52.8693 473.00
52.9345 489.00
52.9997 434.00
53.0649 483.00
53.1301 438.00
53.1953 405.00
53.2605 396.00
53.3257 400.00
53.3909 486.00
53.4561 440.00
53.5213 418.00
53.5865 403.00
53.6517 446.00
53.7169 442.00
53.7821 429.00
53.8473 428.00
53.9125 490.00
53.9777 452.00
54.0429 462.00
54.1081 503.00
54.1733 538.00
54.2385 559.00
54.3037 574.00
54.3689 511.00
54.4341 497.00
54.4993 467.00
54.5645 398.00
54.6297 465.00
54.6949 432.00
54.7601 425.00
54.8253 400.00
54.8905 419.00
54.9557 428.00
55.0209 438.00
55.0861 421.00
55.1513 518.00
55.2165 578.00
55.2817 884.00
55.3469 1635.00
55.4121 940.00
55.4773 1008.00
55.5425 836.00
55.6077 524.00
55.6729 516.00
55.7381 552.00
55.8033 585.00
55.8685 673.00
55.9337 773.00
55.9989 643.00
56.0641 645.00
56.1293 523.00
56.1945 513.00
56.2597 458.00
56.3249 446.00
56.3901 464.00
56.4553 467.00
56.5205 493.00
56.5857 530.00
56.6509 492.00
56.7161 485.00
56.7813 423.00
56.8465 432.00
56.9117 437.00
56.9769 397.00
57.042 428.00
57.1073 407.00
57.1724 405.00
57.2376 400.00
57.3028 455.00
57.368 408.00
57.4332 389.00
57.4984 412.00
57.5636 389.00
57.6288 346.00
57.694 371.00
57.7592 431.00
57.8244 406.00
57.8896 391.00
57.9548 404.00
58.02 416.00
58.0852 477.00
58.1504 437.00
58.2156 482.00
58.2808 440.00
58.346 473.00
58.4112 455.00
58.4764 455.00
58.5416 579.00
58.6068 887.00
58.672 1412.00
58.7372 886.00
58.8024 1091.00
58.8676 936.00
58.9328 732.00
58.998 886.00
59.0632 1350.00
59.1284 1503.00
59.1936 1023.00
59.2588 1314.00
59.324 867.00
59.3892 683.00
59.4544 623.00
59.5196 546.00
59.5848 489.00
59.65 433.00
59.7152 442.00
59.7804 409.00
59.8456 424.00
59.9108 403.00
59.976 409.00
60.0412 545.00
60.1064 764.00
60.1716 505.00
60.2368 583.00
60.302 654.00
60.3672 550.00
60.4324 491.00
60.4976 466.00
60.5628 449.00
60.628 454.00
60.6932 421.00
60.7584 413.00
60.8236 405.00
60.8888 437.00
60.954 382.00
61.0192 396.00
61.0844 421.00
61.1496 448.00
61.2148 570.00
61.28 697.00
61.3452 882.00
61.4104 868.00
61.4756 649.00
61.5408 668.00
61.606 532.00
61.6712 484.00
61.7364 442.00
61.8016 395.00
61.8667 460.00
61.932 462.00
61.9971 440.00
62.0623 411.00
62.1275 443.00
62.1927 478.00
62.2579 498.00
62.3231 660.00
62.3883 961.00
62.4535 732.00
62.5187 788.00
62.5839 714.00
62.6491 555.00
62.7143 503.00
62.7795 400.00
62.8447 443.00
62.9099 361.00
62.9751 383.00
63.0403 348.00
63.1055 425.00
63.1707 355.00
63.2359 378.00
63.3011 353.00
63.3663 427.00
63.4315 378.00
63.4967 381.00
63.5619 317.00
63.6271 408.00
63.6923 380.00
63.7575 386.00
63.8227 447.00
63.8879 521.00
63.9531 432.00
64.0183 539.00
64.0835 588.00
64.1487 622.00
64.2139 1029.00
64.2791 1241.00
64.3443 708.00
64.4095 851.00
64.4747 672.00
64.5399 487.00
64.6051 467.00
64.6703 480.00
64.7355 468.00
64.8007 457.00
64.8659 497.00
64.9311 480.00
64.9963 444.00
65.0615 489.00
65.1267 414.00
65.1919 414.00
65.2571 381.00
65.3223 465.00
65.3875 453.00
65.4527 407.00
65.5179 438.00
65.5831 410.00
65.6483 404.00
65.7135 395.00
65.7787 366.00
65.8439 370.00
65.9091 338.00
65.9743 359.00
66.0395 380.00
66.1047 402.00
66.1699 406.00
66.2351 412.00
66.3003 537.00
66.3655 593.00
66.4307 471.00
66.4959 508.00
66.561 442.00
66.6263 386.00
66.6915 390.00
66.7566 367.00
66.8218 373.00
66.887 376.00
66.9522 441.00
67.0174 351.00
67.0826 390.00
67.1478 401.00
67.213 386.00
67.2782 334.00
67.3434 350.00
67.4086 374.00
67.4738 316.00
67.539 362.00
67.6042 376.00
67.6694 363.00
67.7346 399.00
67.7998 335.00
67.865 360.00
67.9302 415.00
67.9954 464.00
68.0606 459.00
68.1258 467.00
68.191 471.00
68.2562 408.00
68.3214 462.00
68.3866 404.00
68.4518 388.00
68.517 431.00
68.5822 459.00
68.6474 459.00
68.7126 454.00
68.7778 463.00
68.843 440.00
68.9082 427.00
68.9734 413.00
69.0386 452.00
69.1038 497.00
69.169 507.00
69.2342 454.00
69.2994 467.00
69.3646 493.00
69.4298 453.00
69.495 358.00
69.5602 393.00
69.6254 470.00
69.6906 433.00
69.7558 468.00
69.821 594.00
69.8862 922.00
69.9514 1583.00
70.0166 1041.00
70.0818 793.00
70.147 1023.00
70.2122 767.00
70.2774 498.00
70.3426 497.00
70.4078 447.00
70.473 429.00
70.5382 509.00
70.6034 472.00
70.6686 512.00
70.7338 485.00
70.799 465.00
70.8642 413.00
70.9294 382.00
70.9946 394.00
71.0598 371.00
71.125 353.00
71.1902 382.00
71.2554 356.00
71.3205 382.00
71.3858 364.00
71.451 405.00
71.5162 372.00
71.5813 360.00
71.6465 370.00
71.7117 436.00
71.7769 596.00
71.8421 719.00
71.9073 524.00
71.9725 577.00
72.0377 699.00
72.1029 494.00
72.1681 478.00
72.2333 465.00
72.2985 426.00
72.3637 418.00
72.4289 450.00
72.4941 543.00
72.5593 612.00
72.6245 594.00
72.6897 506.00
72.7549 603.00
72.8201 564.00
72.8853 561.00
72.9505 515.00
73.0157 513.00
73.0809 463.00
73.1461 459.00
73.2113 402.00
73.2765 406.00
73.3417 390.00
73.4069 327.00
73.4721 351.00
73.5373 353.00
73.6025 342.00
73.6677 328.00
73.7329 389.00
73.7981 370.00
73.8633 360.00
73.9285 347.00
73.9937 369.00
74.0589 370.00
74.1241 375.00
74.1893 391.00
74.2545 375.00
74.3197 407.00
74.3849 488.00
74.4501 436.00
74.5153 422.00
74.5805 562.00
74.6457 839.00
74.7109 1370.00
74.7761 913.00
74.8413 682.00
74.9065 869.00
74.9717 797.00
75.0369 478.00
75.1021 395.00
75.1673 379.00
75.2325 373.00
75.2977 356.00
75.3629 362.00
75.4281 373.00
75.4933 388.00
75.5585 357.00
75.6237 363.00
75.6889 381.00
75.7541 339.00
75.8193 334.00
75.8845 349.00
75.9497 380.00
76.0149 444.00
76.0801 372.00
76.1452 409.00
76.2104 510.00
76.2756 454.00
76.3409 424.00
76.406 416.00
76.4712 446.00
76.5364 405.00
76.6016 387.00
76.6668 338.00
76.732 367.00
76.7972 363.00
76.8624 466.00
76.9276 536.00
76.9928 372.00
77.058 381.00
77.1232 423.00
77.1884 383.00
77.2536 341.00
77.3188 352.00
77.384 359.00
77.4492 376.00
77.5144 399.00
77.5796 377.00
77.6448 312.00
77.71 357.00
77.7752 389.00
77.8404 370.00
77.9056 376.00
77.9708 363.00
78.036 336.00
78.1012 381.00
78.1664 357.00
78.2316 400.00
78.2968 362.00
78.362 424.00
78.4272 448.00
78.4924 418.00
78.5576 404.00
78.6228 368.00
78.688 420.00
78.7532 366.00
78.8184 380.00
78.8836 367.00
78.9488 348.00
79.014 309.00
79.0792 355.00
79.1444 320.00
79.2096 364.00
79.2748 331.00
79.34 350.00
79.4052 368.00
79.4704 397.00
79.5356 413.00
79.6008 467.00
79.666 660.00
79.7312 1127.00
79.7964 698.00
79.8616 515.00
79.9268 702.00
79.992 842.00
80.0572 885.00
80.1224 1027.00
80.1876 546.00
80.2528 482.00
80.318 621.00
80.3832 550.00
80.4484 365.00
80.5136 361.00
80.5788 314.00
80.644 336.00
80.7092 319.00
80.7744 373.00
80.8396 320.00
80.9048 344.00
80.9699 367.00
81.0351 299.00
81.1003 302.00
81.1655 349.00
81.2307 360.00
81.2959 307.00
81.3611 345.00
81.4263 358.00
81.4915 370.00
81.5567 363.00
81.6219 387.00
81.6871 393.00
81.7523 422.00
81.8175 572.00
81.8827 769.00
81.9479 512.00
82.0131 415.00
82.0783 500.00
82.1435 584.00
82.2087 417.00
82.2739 320.00
82.3391 342.00
82.4043 319.00
82.4695 351.00
82.5347 405.00
82.5999 429.00
82.6651 352.00
82.7303 357.00
82.7955 375.00
82.8607 370.00
82.9259 331.00
82.9911 374.00
83.0563 348.00
83.1215 344.00
83.1867 351.00
83.2519 370.00
83.3171 341.00
83.3823 348.00
83.4475 315.00
83.5127 312.00
83.5779 313.00
83.6431 327.00
83.7083 322.00
83.7735 381.00
83.8387 366.00
83.9039 300.00
83.9691 305.00
84.0343 338.00
84.0995 309.00
84.1647 348.00
84.2299 349.00
84.2951 330.00
84.3603 355.00
84.4255 334.00
84.4907 360.00
84.5559 365.00
84.6211 346.00
84.6863 367.00
84.7515 317.00
84.8167 349.00
84.8819 367.00
84.9471 347.00
85.0123 289.00
85.0775 346.00
85.1427 319.00
85.2079 325.00
85.2731 332.00
85.3383 319.00
85.4035 348.00
85.4687 372.00
85.5339 343.00
85.5991 446.00
85.6643 563.00
85.7295 611.00
85.7946 436.00
85.8598 384.00
85.925 448.00
85.9903 466.00
86.0554 355.00
86.1206 297.00
86.1858 297.00
86.251 341.00
86.3162 275.00
86.3814 311.00
86.4466 301.00
86.5118 321.00
86.577 333.00
86.6422 315.00
86.7074 332.00
86.7726 354.00
86.8378 366.00
86.903 373.00
86.9682 391.00
87.0334 406.00
87.0986 369.00
87.1638 408.00
87.229 366.00
87.2942 354.00
87.3594 356.00
87.4246 369.00
87.4898 315.00
87.555 329.00
87.6202 301.00
87.6854 308.00
87.7506 302.00
87.8158 322.00
87.881 324.00
87.9462 292.00
88.0114 304.00
88.0766 332.00
88.1418 325.00
88.207 289.00
88.2722 324.00
88.3374 313.00
88.4026 292.00
88.4678 320.00
88.533 301.00
88.5982 327.00
88.6634 341.00
88.7286 356.00
88.7938 370.00
88.859 376.00
88.9242 343.00
88.9894 312.00
89.0546 337.00
89.1198 333.00
89.185 297.00
89.2502 310.00
89.3154 315.00
89.3806 351.00
89.4458 368.00
89.511 322.00
89.5762 305.00
89.6414 321.00
89.7066 338.00
89.7718 340.00
89.837 295.00
89.9022 302.00
89.9674 336.00
90.0326 328.00
90.0978 303.00
90.163 374.00
90.2282 321.00
90.2934 316.00
90.3586 327.00
90.4238 330.00
90.489 281.00
90.5542 310.00
90.6193 271.00
90.6845 298.00
90.7497 362.00
90.8149 378.00
90.8801 364.00
90.9453 343.00
91.0105 371.00
91.0757 323.00
91.1409 352.00
91.2061 319.00
91.2713 300.00
91.3365 335.00
91.4017 284.00
91.4669 312.00
91.5321 315.00
91.5973 304.00
91.6625 316.00
91.7277 279.00
91.7929 292.00
91.8581 293.00
91.9233 289.00
91.9885 288.00
92.0537 286.00
92.1189 258.00
92.1841 289.00
92.2493 316.00
92.3145 338.00
92.3797 347.00
92.4449 297.00
92.5101 307.00
92.5753 328.00
92.6405 304.00
92.7057 306.00
92.7709 327.00
92.8361 315.00
92.9013 334.00
92.9665 338.00
93.0317 319.00
93.0969 343.00
93.1621 377.00
93.2273 336.00
93.2925 349.00
93.3577 355.00
93.4229 367.00
93.4881 359.00
93.5533 329.00
93.6185 371.00
93.6837 369.00
93.7489 365.00
93.8141 323.00
93.8793 344.00
93.9445 343.00
94.0097 329.00
94.0749 296.00
94.1401 317.00
94.2053 305.00
94.2705 321.00
94.3357 378.00
94.4009 366.00
94.4661 431.00
94.5313 387.00
94.5965 379.00
94.6617 337.00
94.7269 347.00
94.7921 382.00
94.8573 347.00
94.9225 311.00
94.9877 327.00
95.0529 339.00
95.1181 350.00
95.1833 349.00
95.2485 344.00
95.3137 402.00
95.3789 443.00
95.444 639.00
95.5092 709.00
95.5744 457.00
95.6396 420.00
95.7048 429.00
95.77 483.00
95.8352 448.00
95.9004 356.00
95.9656 369.00
96.0308 338.00
96.096 335.00
96.1612 336.00
96.2264 345.00
96.2916 313.00
96.3568 307.00
96.422 318.00
96.4872 362.00
96.5524 500.00
96.6176 435.00
96.6828 389.00
96.748 361.00
96.8132 379.00
96.8784 442.00
96.9436 405.00
97.0088 389.00
97.074 333.00
97.1392 295.00
97.2044 311.00
97.2696 343.00
97.3348 311.00
97.4 310.00
97.4652 331.00
97.5304 292.00
97.5956 312.00
97.6608 306.00
97.726 323.00
97.7912 311.00
97.8564 311.00
97.9216 319.00
97.9868 300.00
98.052 320.00
98.1172 292.00
98.1824 327.00
98.2476 291.00
98.3128 320.00
98.378 342.00
98.4432 327.00
98.5084 335.00
98.5736 288.00
98.6388 316.00
98.704 340.00
98.7692 301.00
98.8344 347.00
98.8996 325.00
98.9648 312.00
99.03 323.00
99.0952 326.00
99.1604 348.00
99.2256 372.00
99.2908 342.00
99.356 521.00
99.4212 459.00
99.4864 425.00
99.5516 426.00
99.6168 483.00
99.682 692.00
99.7472 932.00
99.8124 589.00
99.8776 445.00
99.9428 450.00
100.008 531.00
100.073 620.00
100.095 562.00