File: data/xrd_creation/results/PG_2034-1.xy
9.903433 2628.00
9.968632 2543.00
10.0338 2525.00
10.099 2578.00
10.1642 2409.00
10.2294 2510.00
10.2946 2488.00
10.3598 2482.00
10.425 2442.00
10.4902 2407.00
10.5554 2339.00
10.6206 2349.00
10.6858 2259.00
10.751 2245.00
10.8162 2348.00
10.8814 2261.00
10.9466 2201.00
11.0118 2156.00
11.077 2253.00
11.1422 2236.00
11.2074 2125.00
11.2726 2151.00
11.3378 2071.00
11.403 2088.00
11.4682 2084.00
11.5334 2104.00
11.5986 2004.00
11.6638 2092.00
11.729 1996.00
11.7942 1992.00
11.8594 1892.00
11.9246 1863.00
11.9898 1997.00
12.055 1926.00
12.1202 1846.00
12.1854 1858.00
12.2506 1823.00
12.3158 1860.00
12.381 1848.00
12.4462 1752.00
12.5114 1795.00
12.5766 1792.00
12.6418 1688.00
12.707 1749.00
12.7722 1701.00
12.8374 1667.00
12.9026 1647.00
12.9678 1699.00
13.033 1681.00
13.0982 1702.00
13.1634 1591.00
13.2286 1710.00
13.2938 1638.00
13.359 1670.00
13.4242 1583.00
13.4894 1592.00
13.5546 1557.00
13.6198 1538.00
13.685 1474.00
13.7502 1567.00
13.8154 1567.00
13.8805 1532.00
13.9457 1517.00
14.0109 1546.00
14.0761 1571.00
14.1413 1437.00
14.2065 1488.00
14.2717 1464.00
14.3369 1353.00
14.4021 1368.00
14.4673 1455.00
14.5325 1449.00
14.5977 1391.00
14.6629 1419.00
14.7281 1363.00
14.7933 1372.00
14.8585 1386.00
14.9237 1429.00
14.9889 1419.00
15.0541 1332.00
15.1193 1372.00
15.1845 1318.00
15.2497 1400.00
15.3149 1383.00
15.3801 1313.00
15.4453 1313.00
15.5105 1363.00
15.5757 1375.00
15.6409 1295.00
15.7061 1300.00
15.7713 1268.00
15.8365 1303.00
15.9017 1272.00
15.9669 1250.00
16.0321 1321.00
16.0973 1284.00
16.1625 1250.00
16.2277 1276.00
16.2929 1362.00
16.3581 1236.00
16.4233 1285.00
16.4885 1280.00
16.5537 1327.00
16.6189 1328.00
16.6841 1418.00
16.7493 1500.00
16.8145 1619.00
16.8797 1853.00
16.9449 1972.00
17.0101 1886.00
17.0753 1588.00
17.1405 1398.00
17.2057 1254.00
17.2709 1187.00
17.3361 1234.00
17.4013 1200.00
17.4665 1193.00
17.5317 1176.00
17.5969 1122.00
17.6621 1136.00
17.7273 1125.00
17.7925 1072.00
17.8577 1137.00
17.9229 1144.00
17.9881 1065.00
18.0533 1092.00
18.1185 1066.00
18.1837 1124.00
18.2489 1099.00
18.3141 1002.00
18.3793 1126.00
18.4445 1075.00
18.5097 1022.00
18.5749 1084.00
18.6401 1122.00
18.7052 979.00
18.7704 1047.00
18.8356 1060.00
18.9008 1073.00
18.966 1024.00
19.0312 1022.00
19.0964 1033.00
19.1616 1037.00
19.2268 1095.00
19.292 1009.00
19.3572 1013.00
19.4224 997.00
19.4876 918.00
19.5528 960.00
19.618 1035.00
19.6832 1017.00
19.7484 1004.00
19.8136 908.00
19.8788 960.00
19.944 1005.00
20.0092 967.00
20.0744 994.00
20.1396 987.00
20.2048 906.00
20.27 877.00
20.3352 933.00
20.4004 939.00
20.4656 999.00
20.5308 971.00
20.596 986.00
20.6612 910.00
20.7264 921.00
20.7916 988.00
20.8568 894.00
20.922 937.00
20.9872 925.00
21.0524 945.00
21.1176 918.00
21.1828 901.00
21.248 914.00
21.3132 879.00
21.3784 879.00
21.4436 903.00
21.5088 871.00
21.574 895.00
21.6392 893.00
21.7044 853.00
21.7696 857.00
21.8348 875.00
21.9 957.00
21.9652 898.00
22.0304 837.00
22.0956 866.00
22.1608 831.00
22.226 840.00
22.2912 907.00
22.3564 965.00
22.4216 839.00
22.4868 889.00
22.552 816.00
22.6172 840.00
22.6824 849.00
22.7476 836.00
22.8128 848.00
22.878 811.00
22.9432 801.00
23.0084 812.00
23.0736 840.00
23.1388 826.00
23.204 839.00
23.2692 817.00
23.3344 851.00
23.3996 885.00
23.4647 1018.00
23.5299 1283.00
23.5951 1968.00
23.6603 2802.00
23.7255 2565.00
23.7907 1675.00
23.8559 1054.00
23.9211 847.00
23.9863 821.00
24.0515 899.00
24.1167 816.00
24.1819 756.00
24.2471 785.00
24.3123 747.00
24.3775 809.00
24.4427 746.00
24.5079 769.00
24.5731 770.00
24.6383 780.00
24.7035 735.00
24.7687 723.00
24.8339 746.00
24.8991 739.00
24.9643 693.00
25.0295 730.00
25.0947 726.00
25.1599 741.00
25.2251 678.00
25.2903 720.00
25.3555 721.00
25.4207 718.00
25.4859 767.00
25.5511 747.00
25.6163 725.00
25.6815 728.00
25.7467 682.00
25.8119 717.00
25.8771 706.00
25.9423 715.00
26.0075 691.00
26.0727 708.00
26.1379 713.00
26.2031 694.00
26.2683 698.00
26.3335 721.00
26.3987 678.00
26.4639 725.00
26.5291 700.00
26.5943 673.00
26.6595 680.00
26.7247 698.00
26.7899 658.00
26.8551 688.00
26.9203 693.00
26.9855 655.00
27.0507 702.00
27.1159 705.00
27.1811 730.00
27.2463 671.00
27.3115 674.00
27.3767 643.00
27.4419 651.00
27.5071 695.00
27.5723 705.00
27.6375 664.00
27.7027 710.00
27.7679 717.00
27.8331 672.00
27.8983 691.00
27.9635 657.00
28.0287 682.00
28.0939 605.00
28.1591 647.00
28.2243 672.00
28.2894 696.00
28.3546 675.00
28.4198 663.00
28.485 642.00
28.5502 629.00
28.6154 619.00
28.6806 596.00
28.7458 574.00
28.811 641.00
28.8762 648.00
28.9414 691.00
29.0066 659.00
29.0718 699.00
29.137 736.00
29.2022 810.00
29.2674 914.00
29.3326 965.00
29.3978 920.00
29.463 854.00
29.5282 905.00
29.5934 814.00
29.6586 904.00
29.7238 1143.00
29.789 1329.00
29.8542 1402.00
29.9194 1434.00
29.9846 1282.00
30.0498 1053.00
30.115 970.00
30.1802 852.00
30.2454 748.00
30.3106 667.00
30.3758 621.00
30.441 609.00
30.5062 677.00
30.5714 649.00
30.6366 670.00
30.7018 617.00
30.767 577.00
30.8322 592.00
30.8974 583.00
30.9626 576.00
31.0278 601.00
31.093 518.00
31.1582 577.00
31.2234 575.00
31.2886 532.00
31.3538 532.00
31.419 569.00
31.4842 602.00
31.5494 571.00
31.6146 565.00
31.6798 527.00
31.745 550.00
31.8102 526.00
31.8754 534.00
31.9406 531.00
32.0058 504.00
32.071 512.00
32.1362 524.00
32.2014 553.00
32.2666 491.00
32.3318 514.00
32.397 523.00
32.4622 492.00
32.5274 492.00
32.5926 531.00
32.6578 498.00
32.723 539.00
32.7882 530.00
32.8534 526.00
32.9186 504.00
32.9838 497.00
33.0489 506.00
33.1141 527.00
33.1793 519.00
33.2445 474.00
33.3097 450.00
33.3749 449.00
33.4401 524.00
33.5053 518.00
33.5705 521.00
33.6357 578.00
33.7009 677.00
33.7661 814.00
33.8313 745.00
33.8965 604.00
33.9617 562.00
34.0269 492.00
34.0921 504.00
34.1573 480.00
34.2225 492.00
34.2877 490.00
34.3529 538.00
34.4181 533.00
34.4833 554.00
34.5485 580.00
34.6137 485.00
34.6789 546.00
34.7441 429.00
34.8093 482.00
34.8745 450.00
34.9397 436.00
35.0049 484.00
35.0701 440.00
35.1353 479.00
35.2005 428.00
35.2657 500.00
35.3309 472.00
35.3961 444.00
35.4613 496.00
35.5265 447.00
35.5917 448.00
35.6569 459.00
35.7221 464.00
35.7873 412.00
35.8525 436.00
35.9177 476.00
35.9829 428.00
36.0481 410.00
36.1133 432.00
36.1785 400.00
36.2437 447.00
36.3089 377.00
36.3741 424.00
36.4393 417.00
36.5045 433.00
36.5697 433.00
36.6349 409.00
36.7001 406.00
36.7653 473.00
36.8305 400.00
36.8957 430.00
36.9609 417.00
37.0261 398.00
37.0913 433.00
37.1565 381.00
37.2217 415.00
37.2869 429.00
37.3521 412.00
37.4173 432.00
37.4825 456.00
37.5477 402.00
37.6129 403.00
37.6781 398.00
37.7433 418.00
37.8085 452.00
37.8736 543.00
37.9388 565.00
38.004 642.00
38.0692 597.00
38.1344 572.00
38.1996 463.00
38.2648 436.00
38.33 435.00
38.3952 418.00
38.4604 413.00
38.5256 401.00
38.5908 390.00
38.656 359.00
38.7212 368.00
38.7864 428.00
38.8516 416.00
38.9168 401.00
38.982 363.00
39.0472 370.00
39.1124 391.00
39.1776 406.00
39.2428 411.00
39.308 411.00
39.3732 407.00
39.4384 420.00
39.5036 368.00
39.5688 374.00
39.634 389.00
39.6992 348.00
39.7644 391.00
39.8296 376.00
39.8948 379.00
39.96 334.00
40.0252 334.00
40.0904 362.00
40.1556 307.00
40.2208 326.00
40.286 370.00
40.3512 343.00
40.4164 368.00
40.4816 341.00
40.5468 405.00
40.612 369.00
40.6772 357.00
40.7424 343.00
40.8076 382.00
40.8728 386.00
40.938 354.00
41.0032 332.00
41.0684 337.00
41.1336 368.00
41.1988 330.00
41.264 362.00
41.3292 332.00
41.3944 344.00
41.4596 359.00
41.5248 348.00
41.59 359.00
41.6552 327.00
41.7204 366.00
41.7856 363.00
41.8508 328.00
41.916 407.00
41.9812 326.00
42.0464 371.00
42.1116 322.00
42.1768 316.00
42.242 338.00
42.3072 354.00
42.3724 340.00
42.4376 360.00
42.5028 322.00
42.568 355.00
42.6332 310.00
42.6983 333.00
42.7635 329.00
42.8287 318.00
42.8939 342.00
42.9591 353.00
43.0243 340.00
43.0895 327.00
43.1547 331.00
43.2199 338.00
43.2851 365.00
43.3503 319.00
43.4155 350.00
43.4807 350.00
43.5459 319.00
43.6111 327.00
43.6763 317.00
43.7415 348.00
43.8067 304.00
43.8719 350.00
43.9371 328.00
44.0023 334.00
44.0675 324.00
44.1327 358.00
44.1979 295.00
44.2631 384.00
44.3283 344.00
44.3935 349.00
44.4587 309.00
44.5239 350.00
44.5891 326.00
44.6543 332.00
44.7195 328.00
44.7847 342.00
44.8499 316.00
44.9151 326.00
44.9803 321.00
45.0455 321.00
45.1107 329.00
45.1759 357.00
45.2411 377.00
45.3063 449.00
45.3715 493.00
45.4367 449.00
45.5019 456.00
45.5671 476.00
45.6323 532.00
45.6975 607.00
45.7627 649.00
45.8279 583.00
45.8931 548.00
45.9583 484.00
46.0235 406.00
46.0887 360.00
46.1539 352.00
46.2191 364.00
46.2843 336.00
46.3495 415.00
46.4147 366.00
46.4799 335.00
46.5451 352.00
46.6103 347.00
46.6755 331.00
46.7407 324.00
46.8059 281.00
46.8711 283.00
46.9363 331.00
47.0015 282.00
47.0667 325.00
47.1319 310.00
47.1971 281.00
47.2623 299.00
47.3275 287.00
47.3927 306.00
47.4579 276.00
47.523 301.00
47.5882 313.00
47.6534 280.00
47.7186 314.00
47.7838 290.00
47.849 293.00
47.9142 277.00
47.9794 316.00
48.0446 334.00
48.1098 301.00
48.175 274.00
48.2402 295.00
48.3054 300.00
48.3706 373.00
48.4358 277.00
48.501 327.00
48.5662 329.00
48.6314 307.00
48.6966 284.00
48.7618 318.00
48.827 277.00
48.8922 284.00
48.9574 341.00
49.0226 296.00
49.0878 271.00
49.153 276.00
49.2182 292.00
49.2834 289.00
49.3486 294.00
49.4138 273.00
49.479 294.00
49.5442 274.00
49.6094 274.00
49.6746 285.00
49.7398 287.00
49.805 279.00
49.8702 266.00
49.9354 259.00
50.0006 275.00
50.0658 271.00
50.131 273.00
50.1962 272.00
50.2614 250.00
50.3266 303.00
50.3918 271.00
50.457 278.00
50.5222 267.00
50.5874 250.00
50.6526 279.00
50.7178 233.00
50.783 245.00
50.8482 274.00
50.9134 302.00
50.9786 260.00
51.0438 281.00
51.109 278.00
51.1742 249.00
51.2394 235.00
51.3046 294.00
51.3698 287.00
51.435 221.00
51.5002 256.00
51.5654 290.00
51.6306 297.00
51.6958 237.00
51.761 248.00
51.8262 288.00
51.8914 281.00
51.9566 258.00
52.0218 248.00
52.087 263.00
52.1522 284.00
52.2174 272.00
52.2826 264.00
52.3477 245.00
52.4129 228.00
52.4781 275.00
52.5433 279.00
52.6085 269.00
52.6737 240.00
52.7389 259.00
52.8041 224.00
52.8693 270.00
52.9345 243.00
52.9997 258.00
53.0649 271.00
53.1301 277.00
53.1953 268.00
53.2605 257.00
53.3257 277.00
53.3909 283.00
53.4561 261.00
53.5213 237.00
53.5865 262.00
53.6517 228.00
53.7169 245.00
53.7821 247.00
53.8473 267.00
53.9125 239.00
53.9777 274.00
54.0429 249.00
54.1081 294.00
54.1733 221.00
54.2385 277.00
54.3037 247.00
54.3689 242.00
54.4341 267.00
54.4993 287.00
54.5645 265.00
54.6297 274.00
54.6949 293.00
54.7601 313.00
54.8253 306.00
54.8905 313.00
54.9557 245.00
55.0209 240.00
55.0861 273.00
55.1513 239.00
55.2165 245.00
55.2817 274.00
55.3469 234.00
55.4121 231.00
55.4773 256.00
55.5425 266.00
55.6077 213.00
55.6729 217.00
55.7381 230.00
55.8033 237.00
55.8685 230.00
55.9337 268.00
55.9989 242.00
56.0641 240.00
56.1293 259.00
56.1945 249.00
56.2597 271.00
56.3249 243.00
56.3901 246.00
56.4553 267.00
56.5205 244.00
56.5857 234.00
56.6509 225.00
56.7161 283.00
56.7813 248.00
56.8465 243.00
56.9117 235.00
56.9769 240.00
57.042 268.00
57.1073 219.00
57.1724 236.00
57.2376 248.00
57.3028 258.00
57.368 210.00
57.4332 239.00
57.4984 263.00
57.5636 231.00
57.6288 264.00
57.694 236.00
57.7592 248.00
57.8244 245.00
57.8896 217.00
57.9548 258.00
58.02 273.00
58.0852 261.00
58.1504 293.00
58.2156 287.00
58.2808 241.00
58.346 238.00
58.4112 217.00
58.4764 237.00
58.5416 262.00
58.6068 212.00
58.672 231.00
58.7372 265.00
58.8024 227.00
58.8676 246.00
58.9328 216.00
58.998 212.00
59.0632 246.00
59.1284 221.00
59.1936 218.00
59.2588 201.00
59.324 192.00
59.3892 225.00
59.4544 231.00
59.5196 204.00
59.5848 242.00
59.65 206.00
59.7152 209.00
59.7804 192.00
59.8456 195.00
59.9108 230.00
59.976 214.00
60.0412 209.00
60.1064 204.00
60.1716 214.00
60.2368 216.00
60.302 195.00
60.3672 204.00
60.4324 203.00
60.4976 181.00
60.5628 223.00
60.628 189.00
60.6932 201.00
60.7584 229.00
60.8236 222.00
60.8888 201.00
60.954 203.00
61.0192 214.00
61.0844 218.00
61.1496 203.00
61.2148 193.00
61.28 200.00
61.3452 241.00
61.4104 224.00
61.4756 203.00
61.5408 205.00
61.606 230.00
61.6712 220.00
61.7364 173.00
61.8016 208.00
61.8667 205.00
61.932 223.00
61.9971 226.00
62.0623 224.00
62.1275 248.00
62.1927 213.00
62.2579 188.00
62.3231 240.00
62.3883 206.00
62.4535 204.00
62.5187 219.00
62.5839 230.00
62.6491 245.00
62.7143 216.00
62.7795 200.00
62.8447 209.00
62.9099 239.00
62.9751 197.00
63.0403 218.00
63.1055 210.00
63.1707 218.00
63.2359 208.00
63.3011 232.00
63.3663 224.00
63.4315 247.00
63.4967 217.00
63.5619 200.00
63.6271 193.00
63.6923 187.00
63.7575 195.00
63.8227 187.00
63.8879 210.00
63.9531 217.00
64.0183 201.00
64.0835 225.00
64.1487 242.00
64.2139 220.00
64.2791 223.00
64.3443 212.00
64.4095 220.00
64.4747 200.00
64.5399 219.00
64.6051 209.00
64.6703 212.00
64.7355 193.00
64.8007 183.00
64.8659 213.00
64.9311 212.00
64.9963 186.00
65.0615 189.00
65.1267 192.00
65.1919 205.00
65.2571 193.00
65.3223 224.00
65.3875 230.00
65.4527 232.00
65.5179 186.00
65.5831 199.00
65.6483 174.00
65.7135 197.00
65.7787 195.00
65.8439 156.00
65.9091 194.00
65.9743 171.00
66.0395 216.00
66.1047 189.00
66.1699 191.00
66.2351 214.00
66.3003 201.00
66.3655 192.00
66.4307 208.00
66.4959 202.00
66.561 195.00
66.6263 179.00
66.6915 183.00
66.7566 197.00
66.8218 185.00
66.887 200.00
66.9522 201.00
67.0174 179.00
67.0826 183.00
67.1478 185.00
67.213 207.00
67.2782 192.00
67.3434 220.00
67.4086 178.00
67.4738 226.00
67.539 203.00
67.6042 183.00
67.6694 176.00
67.7346 219.00
67.7998 196.00
67.865 195.00
67.9302 175.00
67.9954 199.00
68.0606 188.00
68.1258 176.00
68.191 211.00
68.2562 196.00
68.3214 212.00
68.3866 180.00
68.4518 188.00
68.517 185.00
68.5822 207.00
68.6474 212.00
68.7126 183.00
68.7778 211.00
68.843 206.00
68.9082 241.00
68.9734 233.00
69.0386 228.00
69.1038 193.00
69.169 221.00
69.2342 242.00
69.2994 205.00
69.3646 198.00
69.4298 192.00
69.495 212.00
69.5602 203.00
69.6254 194.00
69.6906 204.00
69.7558 217.00
69.821 191.00
69.8862 211.00
69.9514 193.00
70.0166 191.00
70.0818 170.00
70.147 178.00
70.2122 186.00
70.2774 181.00
70.3426 188.00
70.4078 188.00
70.473 204.00
70.5382 213.00
70.6034 195.00
70.6686 202.00
70.7338 208.00
70.799 187.00
70.8642 188.00
70.9294 195.00
70.9946 214.00
71.0598 196.00
71.125 227.00
71.1902 208.00
71.2554 211.00
71.3205 197.00
71.3858 223.00
71.451 207.00
71.5162 197.00
71.5813 180.00
71.6465 189.00
71.7117 224.00
71.7769 212.00
71.8421 190.00
71.9073 207.00
71.9725 196.00
72.0377 221.00
72.1029 203.00
72.1681 206.00
72.2333 175.00
72.2985 202.00
72.3637 217.00
72.4289 231.00
72.4941 208.00
72.5593 215.00
72.6245 222.00
72.6897 210.00
72.7549 227.00
72.8201 204.00
72.8853 231.00
72.9505 205.00
73.0157 211.00
73.0809 208.00
73.1461 200.00
73.2113 218.00
73.2765 216.00
73.3417 218.00
73.4069 206.00
73.4721 179.00
73.5373 203.00
73.6025 231.00
73.6677 206.00
73.7329 210.00
73.7981 198.00
73.8633 205.00
73.9285 192.00
73.9937 215.00
74.0589 205.00
74.1241 195.00
74.1893 219.00
74.2545 234.00
74.3197 183.00
74.3849 222.00
74.4501 189.00
74.5153 215.00
74.5805 201.00
74.6457 240.00
74.7109 180.00
74.7761 205.00
74.8413 223.00
74.9065 228.00
74.9717 170.00
75.0369 220.00
75.1021 184.00
75.1673 262.00
75.2325 192.00
75.2977 233.00
75.3629 202.00
75.4281 170.00
75.4933 208.00
75.5585 201.00
75.6237 190.00
75.6889 198.00
75.7541 205.00
75.8193 206.00
75.8845 181.00
75.9497 212.00
76.0149 210.00
76.0801 215.00
76.1452 240.00
76.2104 198.00
76.2756 211.00
76.3409 190.00
76.406 230.00
76.4712 215.00
76.5364 233.00
76.6016 201.00
76.6668 210.00
76.732 228.00
76.7972 250.00
76.8624 211.00
76.9276 226.00
76.9928 236.00
77.058 235.00
77.1232 222.00
77.1884 227.00
77.2536 207.00
77.3188 267.00
77.384 235.00
77.4492 235.00
77.5144 231.00
77.5796 226.00
77.6448 266.00
77.71 247.00
77.7752 250.00
77.8404 258.00
77.9056 233.00
77.9708 225.00
78.036 232.00
78.1012 232.00
78.1664 225.00
78.2316 220.00
78.2968 206.00
78.362 220.00
78.4272 226.00
78.4924 237.00
78.5576 215.00
78.6228 211.00
78.688 247.00
78.7532 230.00
78.8184 235.00
78.8836 227.00
78.9488 238.00
79.014 261.00
79.0792 244.00
79.1444 248.00
79.2096 247.00
79.2748 191.00
79.34 238.00
79.4052 235.00
79.4704 222.00
79.5356 218.00
79.6008 218.00
79.666 209.00
79.7312 219.00
79.7964 243.00
79.8616 210.00
79.9268 213.00
79.992 221.00
80.0572 225.00
80.1224 229.00
80.1876 206.00
80.2528 214.00
80.318 250.00
80.3832 235.00
80.4484 267.00
80.5136 222.00
80.5788 205.00
80.644 210.00
80.7092 235.00
80.7744 245.00
80.8396 245.00
80.9048 247.00
80.9699 221.00
81.0351 201.00
81.1003 270.00
81.1655 245.00
81.2307 261.00
81.2959 245.00
81.3611 263.00
81.4263 240.00
81.4915 242.00
81.5567 266.00
81.6219 201.00
81.6871 210.00
81.7523 226.00
81.8175 228.00
81.8827 225.00
81.9479 226.00
82.0131 247.00
82.0783 205.00
82.1435 249.00
82.2087 218.00
82.2739 226.00
82.3391 243.00
82.4043 220.00
82.4695 242.00
82.5347 218.00
82.5999 224.00
82.6651 234.00
82.7303 228.00
82.7955 225.00
82.8607 205.00
82.9259 226.00
82.9911 216.00
83.0563 219.00
83.1215 206.00
83.1867 222.00
83.2519 204.00
83.3171 222.00
83.3823 225.00
83.4475 232.00
83.5127 196.00
83.5779 216.00
83.6431 204.00
83.7083 246.00
83.7735 225.00
83.8387 205.00
83.9039 209.00
83.9691 191.00
84.0343 224.00
84.0995 221.00
84.1647 222.00
84.2299 228.00
84.2951 188.00
84.3603 214.00
84.4255 230.00
84.4907 192.00
84.5559 211.00
84.6211 198.00
84.6863 220.00
84.7515 237.00
84.8167 224.00
84.8819 195.00
84.9471 219.00
85.0123 197.00
85.0775 225.00
85.1427 195.00
85.2079 216.00
85.2731 191.00
85.3383 223.00
85.4035 214.00
85.4687 237.00
85.5339 207.00
85.5991 211.00
85.6643 206.00
85.7295 231.00
85.7946 213.00
85.8598 213.00
85.925 181.00
85.9903 209.00
86.0554 208.00
86.1206 210.00
86.1858 211.00
86.251 186.00
86.3162 182.00
86.3814 213.00
86.4466 217.00
86.5118 216.00
86.577 212.00
86.6422 197.00
86.7074 190.00
86.7726 201.00
86.8378 201.00
86.903 187.00
86.9682 221.00
87.0334 183.00
87.0986 200.00
87.1638 206.00
87.229 183.00
87.2942 205.00
87.3594 203.00
87.4246 195.00
87.4898 174.00
87.555 210.00
87.6202 201.00
87.6854 206.00
87.7506 192.00
87.8158 190.00
87.881 207.00
87.9462 205.00
88.0114 191.00
88.0766 194.00
88.1418 208.00
88.207 222.00
88.2722 179.00
88.3374 207.00
88.4026 206.00
88.4678 189.00
88.533 196.00
88.5982 201.00
88.6634 194.00
88.7286 212.00
88.7938 179.00
88.859 178.00
88.9242 201.00
88.9894 187.00
89.0546 173.00
89.1198 172.00
89.185 193.00
89.2502 190.00
89.3154 171.00
89.3806 186.00
89.4458 196.00
89.511 191.00
89.5762 204.00
89.6414 193.00
89.7066 179.00
89.7718 225.00
89.837 217.00
89.9022 211.00
89.9674 226.00
90.0326 219.00
90.0978 188.00
90.163 180.00
90.2282 189.00
90.2934 178.00
90.3586 178.00
90.4238 213.00
90.489 206.00
90.5542 202.00
90.6193 172.00
90.6845 177.00
90.7497 181.00
90.8149 202.00
90.8801 162.00
90.9453 189.00
91.0105 170.00
91.0757 193.00
91.1409 205.00
91.2061 168.00
91.2713 200.00
91.3365 172.00
91.4017 189.00
91.4669 183.00
91.5321 178.00
91.5973 201.00
91.6625 208.00
91.7277 186.00
91.7929 186.00
91.8581 185.00
91.9233 182.00
91.9885 175.00
92.0537 197.00
92.1189 183.00
92.1841 222.00
92.2493 175.00
92.3145 202.00
92.3797 190.00
92.4449 213.00
92.5101 185.00
92.5753 182.00
92.6405 203.00
92.7057 196.00
92.7709 197.00
92.8361 225.00
92.9013 190.00
92.9665 165.00
93.0317 187.00
93.0969 173.00
93.1621 194.00
93.2273 168.00
93.2925 181.00
93.3577 213.00
93.4229 174.00
93.4881 179.00
93.5533 192.00
93.6185 195.00
93.6837 177.00
93.7489 192.00
93.8141 173.00
93.8793 180.00
93.9445 201.00
94.0097 189.00
94.0749 180.00
94.1401 185.00
94.2053 202.00
94.2705 194.00
94.3357 198.00
94.4009 187.00
94.4661 168.00
94.5313 169.00
94.5965 200.00
94.6617 186.00
94.7269 192.00
94.7921 180.00
94.8573 173.00
94.9225 187.00
94.9877 178.00
95.0529 183.00
95.1181 171.00
95.1833 183.00
95.2485 182.00
95.3137 191.00
95.3789 194.00
95.444 161.00
95.5092 185.00
95.5744 186.00
95.6396 182.00
95.7048 195.00
95.77 185.00
95.8352 174.00
95.9004 179.00
95.9656 206.00
96.0308 166.00
96.096 193.00
96.1612 176.00
96.2264 183.00
96.2916 191.00
96.3568 203.00
96.422 182.00
96.4872 188.00
96.5524 176.00
96.6176 198.00
96.6828 156.00
96.748 194.00
96.8132 198.00
96.8784 179.00
96.9436 186.00
97.0088 219.00
97.074 174.00
97.1392 197.00
97.2044 171.00
97.2696 191.00
97.3348 162.00
97.4 169.00
97.4652 192.00
97.5304 171.00
97.5956 206.00
97.6608 196.00
97.726 189.00
97.7912 194.00
97.8564 201.00
97.9216 206.00
97.9868 186.00
98.052 163.00
98.1172 184.00
98.1824 189.00
98.2476 189.00
98.3128 178.00
98.378 193.00
98.4432 201.00
98.5084 189.00
98.5736 201.00
98.6388 191.00
98.704 188.00
98.7692 167.00
98.8344 181.00
98.8996 185.00
98.9648 214.00
99.03 170.00
99.0952 189.00
99.1604 186.00
99.2256 194.00
99.2908 180.00
99.356 176.00
99.4212 161.00
99.4864 173.00
99.5516 183.00
99.6168 189.00
99.682 149.00
99.7472 188.00
99.8124 190.00
99.8776 171.00
99.9428 161.00
100.008 170.00
100.073 180.00
100.095 191.00