File: data/xrd_creation/results/PG_2246-1.xy
9.903433 2513.00
9.968632 2514.00
10.0338 2474.00
10.099 2443.00
10.1642 2460.00
10.2294 2404.00
10.2946 2353.00
10.3598 2362.00
10.425 2309.00
10.4902 2299.00
10.5554 2264.00
10.6206 2309.00
10.6858 2311.00
10.751 2224.00
10.8162 2218.00
10.8814 2197.00
10.9466 2168.00
11.0118 2174.00
11.077 2182.00
11.1422 2183.00
11.2074 2141.00
11.2726 2064.00
11.3378 2107.00
11.403 2046.00
11.4682 2037.00
11.5334 2069.00
11.5986 2047.00
11.6638 1967.00
11.729 1965.00
11.7942 2038.00
11.8594 1962.00
11.9246 1919.00
11.9898 2004.00
12.055 1816.00
12.1202 1863.00
12.1854 1935.00
12.2506 1900.00
12.3158 1871.00
12.381 1897.00
12.4462 1844.00
12.5114 1741.00
12.5766 1806.00
12.6418 1820.00
12.707 1799.00
12.7722 1858.00
12.8374 1759.00
12.9026 1738.00
12.9678 1742.00
13.033 1738.00
13.0982 1702.00
13.1634 1727.00
13.2286 1726.00
13.2938 1677.00
13.359 1636.00
13.4242 1686.00
13.4894 1552.00
13.5546 1711.00
13.6198 1628.00
13.685 1586.00
13.7502 1613.00
13.8154 1583.00
13.8805 1674.00
13.9457 1611.00
14.0109 1607.00
14.0761 1585.00
14.1413 1625.00
14.2065 1502.00
14.2717 1581.00
14.3369 1566.00
14.4021 1572.00
14.4673 1578.00
14.5325 1539.00
14.5977 1566.00
14.6629 1549.00
14.7281 1507.00
14.7933 1552.00
14.8585 1561.00
14.9237 1558.00
14.9889 1528.00
15.0541 1481.00
15.1193 1487.00
15.1845 1467.00
15.2497 1465.00
15.3149 1474.00
15.3801 1501.00
15.4453 1480.00
15.5105 1477.00
15.5757 1471.00
15.6409 1449.00
15.7061 1452.00
15.7713 1484.00
15.8365 1406.00
15.9017 1458.00
15.9669 1497.00
16.0321 1438.00
16.0973 1389.00
16.1625 1409.00
16.2277 1424.00
16.2929 1384.00
16.3581 1403.00
16.4233 1454.00
16.4885 1376.00
16.5537 1431.00
16.6189 1384.00
16.6841 1362.00
16.7493 1380.00
16.8145 1360.00
16.8797 1414.00
16.9449 1323.00
17.0101 1349.00
17.0753 1319.00
17.1405 1360.00
17.2057 1348.00
17.2709 1322.00
17.3361 1244.00
17.4013 1291.00
17.4665 1345.00
17.5317 1314.00
17.5969 1318.00
17.6621 1270.00
17.7273 1316.00
17.7925 1290.00
17.8577 1337.00
17.9229 1234.00
17.9881 1244.00
18.0533 1251.00
18.1185 1276.00
18.1837 1254.00
18.2489 1218.00
18.3141 1271.00
18.3793 1222.00
18.4445 1226.00
18.5097 1251.00
18.5749 1203.00
18.6401 1289.00
18.7052 1181.00
18.7704 1132.00
18.8356 1150.00
18.9008 1173.00
18.966 1187.00
19.0312 1173.00
19.0964 1158.00
19.1616 1134.00
19.2268 1214.00
19.292 1153.00
19.3572 1163.00
19.4224 1093.00
19.4876 1164.00
19.5528 1103.00
19.618 1152.00
19.6832 1102.00
19.7484 1124.00
19.8136 1102.00
19.8788 1112.00
19.944 1100.00
20.0092 1185.00
20.0744 1037.00
20.1396 1105.00
20.2048 1109.00
20.27 1162.00
20.3352 1113.00
20.4004 1078.00
20.4656 1093.00
20.5308 1102.00
20.596 1077.00
20.6612 1050.00
20.7264 1048.00
20.7916 1026.00
20.8568 1047.00
20.922 1026.00
20.9872 1074.00
21.0524 1015.00
21.1176 1032.00
21.1828 1072.00
21.248 1038.00
21.3132 1145.00
21.3784 1129.00
21.4436 1299.00
21.5088 1408.00
21.574 1881.00
21.6392 2419.00
21.7044 2594.00
21.7696 1612.00
21.8348 1103.00
21.9 1010.00
21.9652 1040.00
22.0304 1082.00
22.0956 1021.00
22.1608 978.00
22.226 962.00
22.2912 1064.00
22.3564 976.00
22.4216 960.00
22.4868 1017.00
22.552 987.00
22.6172 916.00
22.6824 926.00
22.7476 997.00
22.8128 976.00
22.878 942.00
22.9432 1003.00
23.0084 921.00
23.0736 977.00
23.1388 1001.00
23.204 975.00
23.2692 898.00
23.3344 909.00
23.3996 920.00
23.4647 976.00
23.5299 908.00
23.5951 1001.00
23.6603 999.00
23.7255 1129.00
23.7907 1182.00
23.8559 1036.00
23.9211 913.00
23.9863 928.00
24.0515 896.00
24.1167 826.00
24.1819 911.00
24.2471 880.00
24.3123 824.00
24.3775 844.00
24.4427 902.00
24.5079 866.00
24.5731 935.00
24.6383 967.00
24.7035 932.00
24.7687 996.00
24.8339 1094.00
24.8991 1086.00
24.9643 1050.00
25.0295 1113.00
25.0947 1192.00
25.1599 1328.00
25.2251 1468.00
25.2903 1754.00
25.3555 2422.00
25.4207 4011.00
25.4859 7718.00
25.5511 15241.00
25.6163 25763.00
25.6815 24518.00
25.7467 11030.00
25.8119 3819.00
25.8771 2205.00
25.9423 1717.00
26.0075 1370.00
26.0727 1205.00
26.1379 1104.00
26.2031 1029.00
26.2683 932.00
26.3335 938.00
26.3987 959.00
26.4639 923.00
26.5291 910.00
26.5943 873.00
26.6595 831.00
26.7247 919.00
26.7899 862.00
26.8551 864.00
26.9203 841.00
26.9855 808.00
27.0507 827.00
27.1159 869.00
27.1811 846.00
27.2463 787.00
27.3115 828.00
27.3767 810.00
27.4419 741.00
27.5071 754.00
27.5723 802.00
27.6375 839.00
27.7027 900.00
27.7679 958.00
27.8331 864.00
27.8983 854.00
27.9635 748.00
28.0287 750.00
28.0939 741.00
28.1591 783.00
28.2243 761.00
28.2894 730.00
28.3546 754.00
28.4198 699.00
28.485 736.00
28.5502 790.00
28.6154 695.00
28.6806 734.00
28.7458 702.00
28.811 755.00
28.8762 746.00
28.9414 714.00
29.0066 723.00
29.0718 705.00
29.137 635.00
29.2022 643.00
29.2674 662.00
29.3326 714.00
29.3978 660.00
29.463 676.00
29.5282 697.00
29.5934 708.00
29.6586 745.00
29.7238 997.00
29.789 1182.00
29.8542 993.00
29.9194 834.00
29.9846 753.00
30.0498 725.00
30.115 663.00
30.1802 714.00
30.2454 665.00
30.3106 703.00
30.3758 665.00
30.441 646.00
30.5062 716.00
30.5714 707.00
30.6366 725.00
30.7018 762.00
30.767 947.00
30.8322 1293.00
30.8974 1793.00
30.9626 2203.00
31.0278 1457.00
31.093 940.00
31.1582 774.00
31.2234 666.00
31.2886 629.00
31.3538 645.00
31.419 576.00
31.4842 656.00
31.5494 579.00
31.6146 657.00
31.6798 676.00
31.745 682.00
31.8102 733.00
31.8754 832.00
31.9406 1053.00
32.0058 1667.00
32.071 2767.00
32.1362 3343.00
32.2014 2453.00
32.2666 1334.00
32.3318 931.00
32.397 714.00
32.4622 658.00
32.5274 693.00
32.5926 599.00
32.6578 601.00
32.723 567.00
32.7882 623.00
32.8534 587.00
32.9186 600.00
32.9838 546.00
33.0489 596.00
33.1141 534.00
33.1793 548.00
33.2445 549.00
33.3097 572.00
33.3749 550.00
33.4401 568.00
33.5053 495.00
33.5705 516.00
33.6357 531.00
33.7009 507.00
33.7661 514.00
33.8313 491.00
33.8965 530.00
33.9617 568.00
34.0269 546.00
34.0921 561.00
34.1573 560.00
34.2225 606.00
34.2877 685.00
34.3529 905.00
34.4181 1199.00
34.4833 1133.00
34.5485 856.00
34.6137 568.00
34.6789 574.00
34.7441 511.00
34.8093 555.00
34.8745 559.00
34.9397 546.00
35.0049 532.00
35.0701 487.00
35.1353 544.00
35.2005 467.00
35.2657 466.00
35.3309 529.00
35.3961 475.00
35.4613 508.00
35.5265 495.00
35.5917 486.00
35.6569 462.00
35.7221 530.00
35.7873 481.00
35.8525 544.00
35.9177 488.00
35.9829 538.00
36.0481 503.00
36.1133 476.00
36.1785 528.00
36.2437 563.00
36.3089 723.00
36.3741 1395.00
36.4393 1444.00
36.5045 1132.00
36.5697 609.00
36.6349 577.00
36.7001 524.00
36.7653 561.00
36.8305 562.00
36.8957 581.00
36.9609 547.00
37.0261 633.00
37.0913 734.00
37.1565 1198.00
37.2217 2161.00
37.2869 2804.00
37.3521 2123.00
37.4173 1267.00
37.4825 724.00
37.5477 612.00
37.6129 669.00
37.6781 605.00
37.7433 673.00
37.8085 685.00
37.8736 841.00
37.9388 1185.00
38.004 2370.00
38.0692 4702.00
38.1344 6142.00
38.1996 4197.00
38.2648 2357.00
38.33 1067.00
38.3952 732.00
38.4604 686.00
38.5256 608.00
38.5908 602.00
38.656 588.00
38.7212 791.00
38.7864 1130.00
38.8516 1960.00
38.9168 2121.00
38.982 1513.00
39.0472 1011.00
39.1124 679.00
39.1776 570.00
39.2428 493.00
39.308 475.00
39.3732 434.00
39.4384 463.00
39.5036 433.00
39.5688 468.00
39.634 522.00
39.6992 454.00
39.7644 557.00
39.8296 726.00
39.8948 917.00
39.96 748.00
40.0252 631.00
40.0904 527.00
40.1556 534.00
40.2208 668.00
40.286 719.00
40.3512 557.00
40.4164 504.00
40.4816 446.00
40.5468 439.00
40.612 444.00
40.6772 381.00
40.7424 407.00
40.8076 417.00
40.8728 400.00
40.938 402.00
41.0032 408.00
41.0684 421.00
41.1336 418.00
41.1988 427.00
41.264 406.00
41.3292 417.00
41.3944 402.00
41.4596 424.00
41.5248 433.00
41.59 410.00
41.6552 378.00
41.7204 416.00
41.7856 408.00
41.8508 403.00
41.916 415.00
41.9812 423.00
42.0464 445.00
42.1116 383.00
42.1768 440.00
42.242 394.00
42.3072 389.00
42.3724 360.00
42.4376 410.00
42.5028 361.00
42.568 347.00
42.6332 383.00
42.6983 395.00
42.7635 395.00
42.8287 414.00
42.8939 433.00
42.9591 429.00
43.0243 502.00
43.0895 438.00
43.1547 410.00
43.2199 400.00
43.2851 407.00
43.3503 377.00
43.4155 428.00
43.4807 444.00
43.5459 392.00
43.6111 397.00
43.6763 418.00
43.7415 502.00
43.8067 486.00
43.8719 492.00
43.9371 409.00
44.0023 419.00
44.0675 384.00
44.1327 389.00
44.1979 350.00
44.2631 392.00
44.3283 417.00
44.3935 354.00
44.4587 320.00
44.5239 385.00
44.5891 379.00
44.6543 378.00
44.7195 369.00
44.7847 378.00
44.8499 355.00
44.9151 329.00
44.9803 337.00
45.0455 378.00
45.1107 338.00
45.1759 357.00
45.2411 346.00
45.3063 386.00
45.3715 392.00
45.4367 380.00
45.5019 370.00
45.5671 358.00
45.6323 351.00
45.6975 382.00
45.7627 379.00
45.8279 358.00
45.8931 343.00
45.9583 334.00
46.0235 354.00
46.0887 365.00
46.1539 337.00
46.2191 361.00
46.2843 346.00
46.3495 320.00
46.4147 343.00
46.4799 345.00
46.5451 346.00
46.6103 373.00
46.6755 368.00
46.7407 369.00
46.8059 382.00
46.8711 390.00
46.9363 388.00
47.0015 386.00
47.0667 352.00
47.1319 383.00
47.1971 349.00
47.2623 406.00
47.3275 395.00
47.3927 410.00
47.4579 397.00
47.523 376.00
47.5882 378.00
47.6534 399.00
47.7186 381.00
47.7838 431.00
47.849 489.00
47.9142 492.00
47.9794 588.00
48.0446 660.00
48.1098 828.00
48.175 1246.00
48.2402 2645.00
48.3054 6618.00
48.3706 7940.00
48.4358 4991.00
48.501 4073.00
48.5662 1509.00
48.6314 846.00
48.6966 669.00
48.7618 591.00
48.827 496.00
48.8922 472.00
48.9574 535.00
49.0226 672.00
49.0878 687.00
49.153 598.00
49.2182 485.00
49.2834 480.00
49.3486 395.00
49.4138 374.00
49.479 390.00
49.5442 390.00
49.6094 380.00
49.6746 323.00
49.7398 353.00
49.805 356.00
49.8702 320.00
49.9354 344.00
50.0006 326.00
50.0658 406.00
50.131 328.00
50.1962 359.00
50.2614 341.00
50.3266 313.00
50.3918 331.00
50.457 365.00
50.5222 380.00
50.5874 401.00
50.6526 426.00
50.7178 387.00
50.783 373.00
50.8482 382.00
50.9134 333.00
50.9786 370.00
51.0438 319.00
51.109 318.00
51.1742 296.00
51.2394 336.00
51.3046 333.00
51.3698 313.00
51.435 342.00
51.5002 351.00
51.5654 303.00
51.6306 307.00
51.6958 320.00
51.761 323.00
51.8262 312.00
51.8914 297.00
51.9566 348.00
52.0218 320.00
52.087 335.00
52.1522 343.00
52.2174 358.00
52.2826 309.00
52.3477 321.00
52.4129 340.00
52.4781 326.00
52.5433 329.00
52.6085 332.00
52.6737 329.00
52.7389 343.00
52.8041 364.00
52.8693 339.00
52.9345 337.00
52.9997 318.00
53.0649 339.00
53.1301 333.00
53.1953 334.00
53.2605 313.00
53.3257 343.00
53.3909 340.00
53.4561 356.00
53.5213 376.00
53.5865 356.00
53.6517 412.00
53.7169 436.00
53.7821 427.00
53.8473 491.00
53.9125 529.00
53.9777 699.00
54.0429 1188.00
54.1081 2613.00
54.1733 4869.00
54.2385 3894.00
54.3037 3112.00
54.3689 2377.00
54.4341 1097.00
54.4993 617.00
54.5645 596.00
54.6297 540.00
54.6949 464.00
54.7601 471.00
54.8253 438.00
54.8905 424.00
54.9557 476.00
55.0209 487.00
55.0861 554.00
55.1513 730.00
55.2165 1140.00
55.2817 2472.00
55.3469 4947.00
55.4121 3636.00
55.4773 2927.00
55.5425 2391.00
55.6077 1035.00
55.6729 637.00
55.7381 473.00
55.8033 423.00
55.8685 401.00
55.9337 340.00
55.9989 325.00
56.0641 353.00
56.1293 353.00
56.1945 333.00
56.2597 377.00
56.3249 352.00
56.3901 323.00
56.4553 348.00
56.5205 331.00
56.5857 345.00
56.6509 327.00
56.7161 327.00
56.7813 328.00
56.8465 343.00
56.9117 365.00
56.9769 353.00
57.042 459.00
57.1073 432.00
57.1724 353.00
57.2376 365.00
57.3028 295.00
57.368 320.00
57.4332 275.00
57.4984 301.00
57.5636 296.00
57.6288 320.00
57.694 317.00
57.7592 295.00
57.8244 291.00
57.8896 363.00
57.9548 389.00
58.02 497.00
58.0852 412.00
58.1504 408.00
58.2156 387.00
58.2808 313.00
58.346 319.00
58.4112 355.00
58.4764 328.00
58.5416 370.00
58.6068 389.00
58.672 378.00
58.7372 355.00
58.8024 379.00
58.8676 355.00
58.9328 366.00
58.998 395.00
59.0632 383.00
59.1284 387.00
59.1936 372.00
59.2588 422.00
59.324 446.00
59.3892 363.00
59.4544 350.00
59.5196 314.00
59.5848 331.00
59.65 329.00
59.7152 338.00
59.7804 320.00
59.8456 343.00
59.9108 354.00
59.976 416.00
60.0412 473.00
60.1064 465.00
60.1716 397.00
60.2368 415.00
60.302 311.00
60.3672 305.00
60.4324 299.00
60.4976 292.00
60.5628 311.00
60.628 304.00
60.6932 278.00
60.7584 286.00
60.8236 315.00
60.8888 283.00
60.954 282.00
61.0192 294.00
61.0844 288.00
61.1496 274.00
61.2148 298.00
61.28 349.00
61.3452 379.00
61.4104 379.00
61.4756 364.00
61.5408 322.00
61.606 401.00
61.6712 403.00
61.7364 384.00
61.8016 347.00
61.8667 371.00
61.932 329.00
61.9971 367.00
62.0623 347.00
62.1275 352.00
62.1927 372.00
62.2579 501.00
62.3231 728.00
62.3883 1095.00
62.4535 870.00
62.5187 732.00
62.5839 795.00
62.6491 555.00
62.7143 596.00
62.7795 706.00
62.8447 1139.00
62.9099 2273.00
62.9751 3964.00
63.0403 2405.00
63.1055 2101.00
63.1707 2020.00
63.2359 922.00
63.3011 576.00
63.3663 411.00
63.4315 383.00
63.4967 388.00
63.5619 346.00
63.6271 371.00
63.6923 344.00
63.7575 315.00
63.8227 382.00
63.8879 382.00
63.9531 320.00
64.0183 328.00
64.0835 315.00
64.1487 280.00
64.2139 246.00
64.2791 296.00
64.3443 301.00
64.4095 273.00
64.4747 324.00
64.5399 270.00
64.6051 280.00
64.6703 279.00
64.7355 270.00
64.8007 274.00
64.8659 243.00
64.9311 263.00
64.9963 264.00
65.0615 281.00
65.1267 286.00
65.1919 295.00
65.2571 284.00
65.3223 272.00
65.3875 286.00
65.4527 270.00
65.5179 287.00
65.5831 316.00
65.6483 288.00
65.7135 368.00
65.7787 373.00
65.8439 303.00
65.9091 348.00
65.9743 301.00
66.0395 230.00
66.1047 268.00
66.1699 296.00
66.2351 259.00
66.3003 226.00
66.3655 268.00
66.4307 257.00
66.4959 284.00
66.561 267.00
66.6263 279.00
66.6915 284.00
66.7566 271.00
66.8218 259.00
66.887 261.00
66.9522 260.00
67.0174 272.00
67.0826 266.00
67.1478 264.00
67.213 264.00
67.2782 237.00
67.3434 273.00
67.4086 324.00
67.4738 304.00
67.539 302.00
67.6042 289.00
67.6694 277.00
67.7346 248.00
67.7998 287.00
67.865 297.00
67.9302 267.00
67.9954 247.00
68.0606 240.00
68.1258 265.00
68.191 263.00
68.2562 287.00
68.3214 265.00
68.3866 312.00
68.4518 275.00
68.517 352.00
68.5822 310.00
68.6474 321.00
68.7126 318.00
68.7778 353.00
68.843 447.00
68.9082 642.00
68.9734 1196.00
69.0386 1741.00
69.1038 1102.00
69.169 980.00
69.2342 1043.00
69.2994 677.00
69.3646 427.00
69.4298 351.00
69.495 304.00
69.5602 329.00
69.6254 299.00
69.6906 293.00
69.7558 295.00
69.821 266.00
69.8862 281.00
69.9514 262.00
70.0166 278.00
70.0818 325.00
70.147 298.00
70.2122 352.00
70.2774 362.00
70.3426 413.00
70.4078 515.00
70.473 907.00
70.5382 1734.00
70.6034 1585.00
70.6686 855.00
70.7338 1102.00
70.799 972.00
70.8642 545.00
70.9294 364.00
70.9946 320.00
71.0598 304.00
71.125 272.00
71.1902 235.00
71.2554 246.00
71.3205 214.00
71.3858 220.00
71.451 264.00
71.5162 248.00
71.5813 227.00
71.6465 247.00
71.7117 232.00
71.7769 235.00
71.8421 227.00
71.9073 260.00
71.9725 207.00
72.0377 244.00
72.1029 245.00
72.1681 242.00
72.2333 250.00
72.2985 251.00
72.3637 227.00
72.4289 272.00
72.4941 244.00
72.5593 247.00
72.6245 247.00
72.6897 242.00
72.7549 265.00
72.8201 259.00
72.8853 239.00
72.9505 247.00
73.0157 231.00
73.0809 225.00
73.1461 244.00
73.2113 232.00
73.2765 226.00
73.3417 244.00
73.4069 248.00
73.4721 245.00
73.5373 221.00
73.6025 225.00
73.6677 260.00
73.7329 273.00
73.7981 245.00
73.8633 275.00
73.9285 304.00
73.9937 282.00
74.0589 288.00
74.1241 304.00
74.1893 350.00
74.2545 388.00
74.3197 435.00
74.3849 359.00
74.4501 357.00
74.5153 369.00
74.5805 350.00
74.6457 300.00
74.7109 283.00
74.7761 307.00
74.8413 309.00
74.9065 342.00
74.9717 348.00
75.0369 361.00
75.1021 484.00
75.1673 711.00
75.2325 1531.00
75.2977 2612.00
75.3629 2011.00
75.4281 1222.00
75.4933 1527.00
75.5585 1476.00
75.6237 717.00
75.6889 435.00
75.7541 383.00
75.8193 347.00
75.8845 340.00
75.9497 342.00
76.0149 300.00
76.0801 325.00
76.1452 372.00
76.2104 541.00
76.2756 901.00
76.3409 781.00
76.406 539.00
76.4712 552.00
76.5364 551.00
76.6016 402.00
76.6668 283.00
76.732 234.00
76.7972 241.00
76.8624 220.00
76.9276 262.00
76.9928 243.00
77.058 231.00
77.1232 229.00
77.1884 261.00
77.2536 217.00
77.3188 242.00
77.384 208.00
77.4492 248.00
77.5144 207.00
77.5796 209.00
77.6448 224.00
77.71 218.00
77.7752 227.00
77.8404 240.00
77.9056 218.00
77.9708 227.00
78.036 231.00
78.1012 202.00
78.1664 207.00
78.2316 203.00
78.2968 208.00
78.362 232.00
78.4272 225.00
78.4924 226.00
78.5576 240.00
78.6228 228.00
78.688 225.00
78.7532 222.00
78.8184 211.00
78.8836 228.00
78.9488 234.00
79.014 212.00
79.0792 195.00
79.1444 230.00
79.2096 208.00
79.2748 194.00
79.34 218.00
79.4052 189.00
79.4704 193.00
79.5356 211.00
79.6008 244.00
79.666 240.00
79.7312 209.00
79.7964 244.00
79.8616 222.00
79.9268 207.00
79.992 193.00
80.0572 225.00
80.1224 220.00
80.1876 225.00
80.2528 234.00
80.318 245.00
80.3832 225.00
80.4484 222.00
80.5136 237.00
80.5788 240.00
80.644 235.00
80.7092 232.00
80.7744 249.00
80.8396 246.00
80.9048 248.00
80.9699 307.00
81.0351 327.00
81.1003 267.00
81.1655 267.00
81.2307 269.00
81.2959 273.00
81.3611 228.00
81.4263 224.00
81.4915 218.00
81.5567 225.00
81.6219 226.00
81.6871 211.00
81.7523 209.00
81.8175 227.00
81.8827 244.00
81.9479 225.00
82.0131 273.00
82.0783 266.00
82.1435 231.00
82.2087 273.00
82.2739 304.00
82.3391 321.00
82.4043 445.00
82.4695 355.00
82.5347 329.00
82.5999 376.00
82.6651 379.00
82.7303 402.00
82.7955 583.00
82.8607 1015.00
82.9259 1335.00
82.9911 974.00
83.0563 662.00
83.1215 780.00
83.1867 899.00
83.2519 662.00
83.3171 551.00
83.3823 771.00
83.4475 642.00
83.5127 472.00
83.5779 451.00
83.6431 445.00
83.7083 451.00
83.7735 289.00
83.8387 237.00
83.9039 229.00
83.9691 242.00
84.0343 215.00
84.0995 194.00
84.1647 224.00
84.2299 218.00
84.2951 220.00
84.3603 198.00
84.4255 247.00
84.4907 234.00
84.5559 197.00
84.6211 212.00
84.6863 204.00
84.7515 209.00
84.8167 189.00
84.8819 209.00
84.9471 228.00
85.0123 179.00
85.0775 216.00
85.1427 200.00
85.2079 231.00
85.2731 212.00
85.3383 230.00
85.4035 210.00
85.4687 238.00
85.5339 186.00
85.5991 222.00
85.6643 217.00
85.7295 195.00
85.7946 213.00
85.8598 224.00
85.925 206.00
85.9903 223.00
86.0554 177.00
86.1206 230.00
86.1858 215.00
86.251 229.00
86.3162 212.00
86.3814 240.00
86.4466 272.00
86.5118 259.00
86.577 224.00
86.6422 220.00
86.7074 272.00
86.7726 232.00
86.8378 231.00
86.903 225.00
86.9682 228.00
87.0334 187.00
87.0986 220.00
87.1638 217.00
87.229 208.00
87.2942 207.00
87.3594 216.00
87.4246 170.00
87.4898 218.00
87.555 190.00
87.6202 204.00
87.6854 189.00
87.7506 230.00
87.8158 201.00
87.881 200.00
87.9462 236.00
88.0114 223.00
88.0766 194.00
88.1418 207.00
88.207 226.00
88.2722 203.00
88.3374 213.00
88.4026 211.00
88.4678 207.00
88.533 191.00
88.5982 227.00
88.6634 179.00
88.7286 205.00
88.7938 191.00
88.859 218.00
88.9242 214.00
88.9894 224.00
89.0546 210.00
89.1198 226.00
89.185 200.00
89.2502 215.00
89.3154 189.00
89.3806 214.00
89.4458 212.00
89.511 173.00
89.5762 210.00
89.6414 208.00
89.7066 223.00
89.7718 218.00
89.837 190.00
89.9022 182.00
89.9674 191.00
90.0326 240.00
90.0978 215.00
90.163 219.00
90.2282 208.00
90.2934 187.00
90.3586 197.00
90.4238 211.00
90.489 216.00
90.5542 205.00
90.6193 207.00
90.6845 213.00
90.7497 193.00
90.8149 202.00
90.8801 201.00
90.9453 179.00
91.0105 222.00
91.0757 204.00
91.1409 179.00
91.2061 184.00
91.2713 198.00
91.3365 194.00
91.4017 183.00
91.4669 211.00
91.5321 200.00
91.5973 239.00
91.6625 226.00
91.7277 200.00
91.7929 194.00
91.8581 213.00
91.9233 186.00
91.9885 205.00
92.0537 221.00
92.1189 236.00
92.1841 226.00
92.2493 184.00
92.3145 262.00
92.3797 224.00
92.4449 208.00
92.5101 284.00
92.5753 288.00
92.6405 270.00
92.7057 237.00
92.7709 207.00
92.8361 238.00
92.9013 247.00
92.9665 237.00
93.0317 205.00
93.0969 218.00
93.1621 206.00
93.2273 220.00
93.2925 229.00
93.3577 281.00
93.4229 325.00
93.4881 373.00
93.5533 309.00
93.6185 265.00
93.6837 290.00
93.7489 317.00
93.8141 294.00
93.8793 261.00
93.9445 223.00
94.0097 249.00
94.0749 262.00
94.1401 232.00
94.2053 261.00
94.2705 352.00
94.3357 472.00
94.4009 695.00
94.4661 687.00
94.5313 481.00
94.5965 372.00
94.6617 416.00
94.7269 510.00
94.7921 414.00
94.8573 316.00
94.9225 248.00
94.9877 227.00
95.0529 271.00
95.1181 273.00
95.1833 310.00
95.2485 397.00
95.3137 560.00
95.3789 770.00
95.444 651.00
95.5092 466.00
95.5744 386.00
95.6396 478.00
95.7048 599.00
95.77 386.00
95.8352 318.00
95.9004 277.00
95.9656 259.00
96.0308 246.00
96.096 261.00
96.1612 242.00
96.2264 240.00
96.2916 207.00
96.3568 208.00
96.422 223.00
96.4872 195.00
96.5524 225.00
96.6176 215.00
96.6828 201.00
96.748 194.00
96.8132 250.00
96.8784 205.00
96.9436 230.00
97.0088 204.00
97.074 199.00
97.1392 239.00
97.2044 223.00
97.2696 226.00
97.3348 231.00
97.4 230.00
97.4652 266.00
97.5304 211.00
97.5956 219.00
97.6608 223.00
97.726 218.00
97.7912 222.00
97.8564 241.00
97.9216 214.00
97.9868 219.00
98.052 202.00
98.1172 229.00
98.1824 231.00
98.2476 293.00
98.3128 267.00
98.378 295.00
98.4432 391.00
98.5084 548.00
98.5736 597.00
98.6388 459.00
98.704 376.00
98.7692 325.00
98.8344 392.00
98.8996 393.00
98.9648 404.00
99.03 291.00
99.0952 265.00
99.1604 235.00
99.2256 249.00
99.2908 244.00
99.356 265.00
99.4212 240.00
99.4864 264.00
99.5516 241.00
99.6168 257.00
99.682 244.00
99.7472 229.00
99.8124 235.00
99.8776 279.00
99.9428 387.00
100.008 439.00
100.073 478.00
100.095 439.00