File: data/xrd_creation/results/PG_2544-1.xy
9.903433 2642.00
9.968632 2708.00
10.0338 2661.00
10.099 2647.00
10.1642 2540.00
10.2294 2604.00
10.2946 2520.00
10.3598 2429.00
10.425 2569.00
10.4902 2479.00
10.5554 2491.00
10.6206 2503.00
10.6858 2425.00
10.751 2380.00
10.8162 2446.00
10.8814 2443.00
10.9466 2392.00
11.0118 2369.00
11.077 2451.00
11.1422 2424.00
11.2074 2372.00
11.2726 2375.00
11.3378 2398.00
11.403 2232.00
11.4682 2295.00
11.5334 2274.00
11.5986 2150.00
11.6638 2131.00
11.729 2214.00
11.7942 2214.00
11.8594 2215.00
11.9246 2172.00
11.9898 2154.00
12.055 2114.00
12.1202 2124.00
12.1854 2150.00
12.2506 2007.00
12.3158 2077.00
12.381 2073.00
12.4462 1976.00
12.5114 2023.00
12.5766 1994.00
12.6418 2052.00
12.707 1867.00
12.7722 2018.00
12.8374 1907.00
12.9026 1929.00
12.9678 1977.00
13.033 1882.00
13.0982 1817.00
13.1634 1862.00
13.2286 1840.00
13.2938 1841.00
13.359 1780.00
13.4242 1844.00
13.4894 1872.00
13.5546 1826.00
13.6198 1744.00
13.685 1830.00
13.7502 1800.00
13.8154 1791.00
13.8805 1772.00
13.9457 1806.00
14.0109 1703.00
14.0761 1756.00
14.1413 1870.00
14.2065 1754.00
14.2717 1756.00
14.3369 1822.00
14.4021 1763.00
14.4673 1757.00
14.5325 1778.00
14.5977 1779.00
14.6629 1693.00
14.7281 1700.00
14.7933 1833.00
14.8585 1737.00
14.9237 1675.00
14.9889 1696.00
15.0541 1731.00
15.1193 1672.00
15.1845 1698.00
15.2497 1629.00
15.3149 1674.00
15.3801 1714.00
15.4453 1692.00
15.5105 1689.00
15.5757 1652.00
15.6409 1647.00
15.7061 1744.00
15.7713 1682.00
15.8365 1649.00
15.9017 1583.00
15.9669 1620.00
16.0321 1608.00
16.0973 1656.00
16.1625 1660.00
16.2277 1530.00
16.2929 1608.00
16.3581 1584.00
16.4233 1562.00
16.4885 1540.00
16.5537 1509.00
16.6189 1566.00
16.6841 1602.00
16.7493 1532.00
16.8145 1566.00
16.8797 1530.00
16.9449 1595.00
17.0101 1589.00
17.0753 1548.00
17.1405 1552.00
17.2057 1559.00
17.2709 1477.00
17.3361 1469.00
17.4013 1488.00
17.4665 1485.00
17.5317 1496.00
17.5969 1546.00
17.6621 1473.00
17.7273 1506.00
17.7925 1495.00
17.8577 1552.00
17.9229 1515.00
17.9881 1649.00
18.0533 1621.00
18.1185 1678.00
18.1837 1581.00
18.2489 1491.00
18.3141 1540.00
18.3793 1375.00
18.4445 1448.00
18.5097 1509.00
18.5749 1460.00
18.6401 1504.00
18.7052 1438.00
18.7704 1347.00
18.8356 1463.00
18.9008 1413.00
18.966 1349.00
19.0312 1377.00
19.0964 1332.00
19.1616 1387.00
19.2268 1398.00
19.292 1366.00
19.3572 1324.00
19.4224 1303.00
19.4876 1313.00
19.5528 1297.00
19.618 1290.00
19.6832 1298.00
19.7484 1332.00
19.8136 1237.00
19.8788 1316.00
19.944 1316.00
20.0092 1270.00
20.0744 1319.00
20.1396 1236.00
20.2048 1262.00
20.27 1260.00
20.3352 1264.00
20.4004 1325.00
20.4656 1299.00
20.5308 1220.00
20.596 1246.00
20.6612 1311.00
20.7264 1271.00
20.7916 1242.00
20.8568 1228.00
20.922 1187.00
20.9872 1248.00
21.0524 1237.00
21.1176 1213.00
21.1828 1200.00
21.248 1199.00
21.3132 1191.00
21.3784 1186.00
21.4436 1204.00
21.5088 1261.00
21.574 1207.00
21.6392 1250.00
21.7044 1176.00
21.7696 1179.00
21.8348 1163.00
21.9 1194.00
21.9652 1179.00
22.0304 1088.00
22.0956 1155.00
22.1608 1164.00
22.226 1180.00
22.2912 1177.00
22.3564 1166.00
22.4216 1119.00
22.4868 1141.00
22.552 1117.00
22.6172 1102.00
22.6824 1117.00
22.7476 1199.00
22.8128 1119.00
22.878 1043.00
22.9432 1108.00
23.0084 1053.00
23.0736 1064.00
23.1388 1053.00
23.204 1125.00
23.2692 1085.00
23.3344 1064.00
23.3996 1144.00
23.4647 1130.00
23.5299 1074.00
23.5951 1065.00
23.6603 1081.00
23.7255 1048.00
23.7907 1070.00
23.8559 1053.00
23.9211 1015.00
23.9863 1104.00
24.0515 1103.00
24.1167 1050.00
24.1819 1059.00
24.2471 1066.00
24.3123 1083.00
24.3775 1039.00
24.4427 1074.00
24.5079 1060.00
24.5731 994.00
24.6383 1007.00
24.7035 1001.00
24.7687 1040.00
24.8339 1042.00
24.8991 1038.00
24.9643 998.00
25.0295 998.00
25.0947 1011.00
25.1599 999.00
25.2251 997.00
25.2903 1005.00
25.3555 1014.00
25.4207 978.00
25.4859 1024.00
25.5511 942.00
25.6163 1002.00
25.6815 951.00
25.7467 1043.00
25.8119 1009.00
25.8771 972.00
25.9423 1024.00
26.0075 1044.00
26.0727 1071.00
26.1379 1138.00
26.2031 1157.00
26.2683 1182.00
26.3335 1254.00
26.3987 1287.00
26.4639 1477.00
26.5291 1634.00
26.5943 1976.00
26.6595 2908.00
26.7247 4710.00
26.7899 8351.00
26.8551 12587.00
26.9203 13043.00
26.9855 8012.00
27.0507 3847.00
27.1159 2284.00
27.1811 1715.00
27.2463 1382.00
27.3115 1318.00
27.3767 1116.00
27.4419 1191.00
27.5071 1079.00
27.5723 1040.00
27.6375 1050.00
27.7027 956.00
27.7679 925.00
27.8331 937.00
27.8983 927.00
27.9635 909.00
28.0287 960.00
28.0939 843.00
28.1591 905.00
28.2243 866.00
28.2894 885.00
28.3546 941.00
28.4198 930.00
28.485 855.00
28.5502 846.00
28.6154 840.00
28.6806 859.00
28.7458 881.00
28.811 851.00
28.8762 872.00
28.9414 792.00
29.0066 831.00
29.0718 803.00
29.137 845.00
29.2022 822.00
29.2674 832.00
29.3326 847.00
29.3978 855.00
29.463 843.00
29.5282 899.00
29.5934 852.00
29.6586 840.00
29.7238 779.00
29.789 838.00
29.8542 746.00
29.9194 802.00
29.9846 769.00
30.0498 817.00
30.115 766.00
30.1802 802.00
30.2454 767.00
30.3106 818.00
30.3758 766.00
30.441 739.00
30.5062 724.00
30.5714 715.00
30.6366 797.00
30.7018 820.00
30.767 742.00
30.8322 799.00
30.8974 758.00
30.9626 690.00
31.0278 735.00
31.093 777.00
31.1582 740.00
31.2234 743.00
31.2886 719.00
31.3538 711.00
31.419 714.00
31.4842 712.00
31.5494 721.00
31.6146 749.00
31.6798 792.00
31.745 709.00
31.8102 734.00
31.8754 684.00
31.9406 719.00
32.0058 664.00
32.071 678.00
32.1362 702.00
32.2014 700.00
32.2666 681.00
32.3318 702.00
32.397 654.00
32.4622 688.00
32.5274 749.00
32.5926 690.00
32.6578 773.00
32.723 702.00
32.7882 691.00
32.8534 718.00
32.9186 725.00
32.9838 760.00
33.0489 775.00
33.1141 748.00
33.1793 737.00
33.2445 771.00
33.3097 741.00
33.3749 811.00
33.4401 807.00
33.5053 814.00
33.5705 919.00
33.6357 874.00
33.7009 1023.00
33.7661 1126.00
33.8313 1295.00
33.8965 1570.00
33.9617 2507.00
34.0269 4196.00
34.0921 7791.00
34.1573 11519.00
34.2225 10356.00
34.2877 6531.00
34.3529 3097.00
34.4181 1891.00
34.4833 1482.00
34.5485 1218.00
34.6137 1118.00
34.6789 1125.00
34.7441 1058.00
34.8093 993.00
34.8745 901.00
34.9397 799.00
35.0049 750.00
35.0701 769.00
35.1353 649.00
35.2005 694.00
35.2657 670.00
35.3309 698.00
35.3961 668.00
35.4613 684.00
35.5265 676.00
35.5917 662.00
35.6569 672.00
35.7221 643.00
35.7873 651.00
35.8525 644.00
35.9177 631.00
35.9829 610.00
36.0481 634.00
36.1133 625.00
36.1785 648.00
36.2437 687.00
36.3089 677.00
36.3741 686.00
36.4393 666.00
36.5045 617.00
36.5697 599.00
36.6349 558.00
36.7001 584.00
36.7653 614.00
36.8305 602.00
36.8957 610.00
36.9609 665.00
37.0261 599.00
37.0913 625.00
37.1565 724.00
37.2217 805.00
37.2869 708.00
37.3521 688.00
37.4173 632.00
37.4825 613.00
37.5477 636.00
37.6129 618.00
37.6781 597.00
37.7433 704.00
37.8085 705.00
37.8736 730.00
37.9388 755.00
38.004 949.00
38.0692 1300.00
38.1344 1969.00
38.1996 3160.00
38.2648 3752.00
38.33 2741.00
38.3952 1716.00
38.4604 1058.00
38.5256 858.00
38.5908 690.00
38.656 690.00
38.7212 619.00
38.7864 634.00
38.8516 592.00
38.9168 615.00
38.982 627.00
39.0472 593.00
39.1124 696.00
39.1776 880.00
39.2428 1165.00
39.308 1148.00
39.3732 943.00
39.4384 710.00
39.5036 641.00
39.5688 584.00
39.634 559.00
39.6992 623.00
39.7644 544.00
39.8296 496.00
39.8948 564.00
39.96 516.00
40.0252 542.00
40.0904 517.00
40.1556 544.00
40.2208 525.00
40.286 516.00
40.3512 504.00
40.4164 519.00
40.4816 510.00
40.5468 501.00
40.612 496.00
40.6772 553.00
40.7424 513.00
40.8076 526.00
40.8728 562.00
40.938 546.00
41.0032 533.00
41.0684 525.00
41.1336 548.00
41.1988 533.00
41.264 486.00
41.3292 517.00
41.3944 468.00
41.4596 488.00
41.5248 471.00
41.59 509.00
41.6552 517.00
41.7204 522.00
41.7856 509.00
41.8508 579.00
41.916 529.00
41.9812 617.00
42.0464 638.00
42.1116 636.00
42.1768 612.00
42.242 617.00
42.3072 534.00
42.3724 564.00
42.4376 520.00
42.5028 511.00
42.568 483.00
42.6332 544.00
42.6983 527.00
42.7635 575.00
42.8287 612.00
42.8939 678.00
42.9591 796.00
43.0243 873.00
43.0895 1151.00
43.1547 1890.00
43.2199 2000.00
43.2851 1466.00
43.3503 1041.00
43.4155 599.00
43.4807 567.00
43.5459 521.00
43.6111 486.00
43.6763 491.00
43.7415 451.00
43.8067 505.00
43.8719 448.00
43.9371 493.00
44.0023 463.00
44.0675 454.00
44.1327 455.00
44.1979 435.00
44.2631 462.00
44.3283 441.00
44.3935 442.00
44.4587 458.00
44.5239 437.00
44.5891 453.00
44.6543 450.00
44.7195 441.00
44.7847 466.00
44.8499 499.00
44.9151 416.00
44.9803 451.00
45.0455 426.00
45.1107 446.00
45.1759 438.00
45.2411 452.00
45.3063 442.00
45.3715 464.00
45.4367 411.00
45.5019 435.00
45.5671 438.00
45.6323 456.00
45.6975 407.00
45.7627 468.00
45.8279 458.00
45.8931 451.00
45.9583 438.00
46.0235 447.00
46.0887 488.00
46.1539 451.00
46.2191 471.00
46.2843 440.00
46.3495 415.00
46.4147 465.00
46.4799 447.00
46.5451 415.00
46.6103 416.00
46.6755 441.00
46.7407 458.00
46.8059 453.00
46.8711 484.00
46.9363 433.00
47.0015 382.00
47.0667 429.00
47.1319 457.00
47.1971 416.00
47.2623 424.00
47.3275 395.00
47.3927 457.00
47.4579 462.00
47.523 447.00
47.5882 380.00
47.6534 424.00
47.7186 410.00
47.7838 409.00
47.849 401.00
47.9142 421.00
47.9794 386.00
48.0446 383.00
48.1098 417.00
48.175 429.00
48.2402 423.00
48.3054 407.00
48.3706 375.00
48.4358 401.00
48.501 450.00
48.5662 428.00
48.6314 367.00
48.6966 378.00
48.7618 400.00
48.827 431.00
48.8922 433.00
48.9574 436.00
49.0226 407.00
49.0878 402.00
49.153 415.00
49.2182 369.00
49.2834 399.00
49.3486 398.00
49.4138 382.00
49.479 411.00
49.5442 429.00
49.6094 395.00
49.6746 418.00
49.7398 403.00
49.805 378.00
49.8702 399.00
49.9354 373.00
50.0006 443.00
50.0658 456.00
50.131 447.00
50.1962 422.00
50.2614 483.00
50.3266 465.00
50.3918 439.00
50.457 416.00
50.5222 431.00
50.5874 434.00
50.6526 464.00
50.7178 438.00
50.783 454.00
50.8482 461.00
50.9134 475.00
50.9786 454.00
51.0438 448.00
51.109 447.00
51.1742 456.00
51.2394 446.00
51.3046 538.00
51.3698 550.00
51.435 599.00
51.5002 591.00
51.5654 657.00
51.6306 780.00
51.6958 902.00
51.761 1136.00
51.8262 1582.00
51.8914 2731.00
51.9566 5593.00
52.0218 9347.00
52.087 9061.00
52.1522 6923.00
52.2174 5143.00
52.2826 2616.00
52.3477 1489.00
52.4129 1071.00
52.4781 823.00
52.5433 686.00
52.6085 555.00
52.6737 563.00
52.7389 542.00
52.8041 521.00
52.8693 451.00
52.9345 469.00
52.9997 442.00
53.0649 409.00
53.1301 481.00
53.1953 468.00
53.2605 461.00
53.3257 439.00
53.3909 446.00
53.4561 440.00
53.5213 399.00
53.5865 445.00
53.6517 450.00
53.7169 409.00
53.7821 481.00
53.8473 436.00
53.9125 429.00
53.9777 432.00
54.0429 453.00
54.1081 455.00
54.1733 389.00
54.2385 420.00
54.3037 398.00
54.3689 446.00
54.4341 438.00
54.4993 464.00
54.5645 477.00
54.6297 523.00
54.6949 531.00
54.7601 589.00
54.8253 827.00
54.8905 1167.00
54.9557 1844.00
55.0209 2709.00
55.0861 2221.00
55.1513 1821.00
55.2165 1332.00
55.2817 863.00
55.3469 691.00
55.4121 604.00
55.4773 546.00
55.5425 517.00
55.6077 522.00
55.6729 433.00
55.7381 454.00
55.8033 429.00
55.8685 406.00
55.9337 407.00
55.9989 410.00
56.0641 429.00
56.1293 409.00
56.1945 386.00
56.2597 374.00
56.3249 428.00
56.3901 355.00
56.4553 403.00
56.5205 406.00
56.5857 390.00
56.6509 394.00
56.7161 372.00
56.7813 381.00
56.8465 403.00
56.9117 370.00
56.9769 367.00
57.042 390.00
57.1073 423.00
57.1724 368.00
57.2376 382.00
57.3028 389.00
57.368 414.00
57.4332 394.00
57.4984 423.00
57.5636 368.00
57.6288 369.00
57.694 426.00
57.7592 452.00
57.8244 480.00
57.8896 568.00
57.9548 746.00
58.02 1076.00
58.0852 1396.00
58.1504 1260.00
58.2156 1133.00
58.2808 930.00
58.346 639.00
58.4112 525.00
58.4764 419.00
58.5416 452.00
58.6068 427.00
58.672 391.00
58.7372 395.00
58.8024 344.00
58.8676 365.00
58.9328 388.00
58.998 406.00
59.0632 379.00
59.1284 361.00
59.1936 354.00
59.2588 352.00
59.324 381.00
59.3892 363.00
59.4544 391.00
59.5196 350.00
59.5848 406.00
59.65 338.00
59.7152 364.00
59.7804 357.00
59.8456 397.00
59.9108 399.00
59.976 365.00
60.0412 333.00
60.1064 357.00
60.1716 424.00
60.2368 402.00
60.302 357.00
60.3672 353.00
60.4324 359.00
60.4976 389.00
60.5628 354.00
60.628 440.00
60.6932 425.00
60.7584 437.00
60.8236 459.00
60.8888 492.00
60.954 495.00
61.0192 470.00
61.0844 458.00
61.1496 409.00
61.2148 414.00
61.28 364.00
61.3452 357.00
61.4104 422.00
61.4756 415.00
61.5408 396.00
61.606 455.00
61.6712 371.00
61.7364 453.00
61.8016 491.00
61.8667 568.00
61.932 677.00
61.9971 977.00
62.0623 1609.00
62.1275 2323.00
62.1927 2142.00
62.2579 1631.00
62.3231 1569.00
62.3883 1152.00
62.4535 996.00
62.5187 1184.00
62.5839 1216.00
62.6491 907.00
62.7143 882.00
62.7795 714.00
62.8447 479.00
62.9099 444.00
62.9751 420.00
63.0403 395.00
63.1055 413.00
63.1707 388.00
63.2359 380.00
63.3011 352.00
63.3663 332.00
63.4315 394.00
63.4967 347.00
63.5619 349.00
63.6271 340.00
63.6923 375.00
63.7575 405.00
63.8227 409.00
63.8879 384.00
63.9531 389.00
64.0183 393.00
64.0835 362.00
64.1487 362.00
64.2139 453.00
64.2791 414.00
64.3443 389.00
64.4095 406.00
64.4747 386.00
64.5399 466.00
64.6051 526.00
64.6703 564.00
64.7355 586.00
64.8007 770.00
64.8659 1185.00
64.9311 1943.00
64.9963 2301.00
65.0615 1925.00
65.1267 1689.00
65.1919 1431.00
65.2571 1040.00
65.3223 703.00
65.3875 558.00
65.4527 505.00
65.5179 493.00
65.5831 492.00
65.6483 445.00
65.7135 448.00
65.7787 474.00
65.8439 561.00
65.9091 608.00
65.9743 705.00
66.0395 923.00
66.1047 1506.00
66.1699 2452.00
66.2351 2709.00
66.3003 2113.00
66.3655 1931.00
66.4307 1589.00
66.4959 976.00
66.561 717.00
66.6263 569.00
66.6915 499.00
66.7566 451.00
66.8218 472.00
66.887 369.00
66.9522 385.00
67.0174 355.00
67.0826 404.00
67.1478 340.00
67.213 381.00
67.2782 322.00
67.3434 350.00
67.4086 330.00
67.4738 354.00
67.539 324.00
67.6042 353.00
67.6694 343.00
67.7346 336.00
67.7998 360.00
67.865 315.00
67.9302 320.00
67.9954 310.00
68.0606 321.00
68.1258 341.00
68.191 305.00
68.2562 355.00
68.3214 316.00
68.3866 318.00
68.4518 338.00
68.517 343.00
68.5822 330.00
68.6474 300.00
68.7126 311.00
68.7778 317.00
68.843 333.00
68.9082 348.00
68.9734 313.00
69.0386 324.00
69.1038 300.00
69.169 350.00
69.2342 340.00
69.2994 332.00
69.3646 320.00
69.4298 354.00
69.495 369.00
69.5602 357.00
69.6254 336.00
69.6906 328.00
69.7558 366.00
69.821 359.00
69.8862 330.00
69.9514 321.00
70.0166 290.00
70.0818 324.00
70.147 352.00
70.2122 366.00
70.2774 343.00
70.3426 319.00
70.4078 331.00
70.473 304.00
70.5382 317.00
70.6034 358.00
70.6686 300.00
70.7338 326.00
70.799 348.00
70.8642 358.00
70.9294 315.00
70.9946 342.00
71.0598 323.00
71.125 421.00
71.1902 420.00
71.2554 436.00
71.3205 517.00
71.3858 684.00
71.451 1079.00
71.5162 1381.00
71.5813 1096.00
71.6465 936.00
71.7117 931.00
71.7769 813.00
71.8421 525.00
71.9073 492.00
71.9725 430.00
72.0377 357.00
72.1029 348.00
72.1681 362.00
72.2333 344.00
72.2985 342.00
72.3637 332.00
72.4289 323.00
72.4941 286.00
72.5593 339.00
72.6245 312.00
72.6897 328.00
72.7549 350.00
72.8201 359.00
72.8853 354.00
72.9505 340.00
73.0157 360.00
73.0809 325.00
73.1461 325.00
73.2113 329.00
73.2765 296.00
73.3417 322.00
73.4069 306.00
73.4721 316.00
73.5373 336.00
73.6025 339.00
73.6677 271.00
73.7329 305.00
73.7981 292.00
73.8633 297.00
73.9285 296.00
73.9937 306.00
74.0589 319.00
74.1241 298.00
74.1893 333.00
74.2545 299.00
74.3197 313.00
74.3849 299.00
74.4501 308.00
74.5153 327.00
74.5805 291.00
74.6457 321.00
74.7109 351.00
74.7761 333.00
74.8413 376.00
74.9065 428.00
74.9717 410.00
75.0369 353.00
75.1021 374.00
75.1673 341.00
75.2325 314.00
75.2977 298.00
75.3629 291.00
75.4281 279.00
75.4933 299.00
75.5585 313.00
75.6237 301.00
75.6889 289.00
75.7541 311.00
75.8193 280.00
75.8845 288.00
75.9497 303.00
76.0149 289.00
76.0801 311.00
76.1452 324.00
76.2104 300.00
76.2756 323.00
76.3409 329.00
76.406 309.00
76.4712 327.00
76.5364 308.00
76.6016 345.00
76.6668 333.00
76.732 340.00
76.7972 342.00
76.8624 290.00
76.9276 301.00
76.9928 298.00
77.058 301.00
77.1232 303.00
77.1884 282.00
77.2536 279.00
77.3188 325.00
77.384 288.00
77.4492 306.00
77.5144 281.00
77.5796 327.00
77.6448 300.00
77.71 303.00
77.7752 341.00
77.8404 320.00
77.9056 284.00
77.9708 297.00
78.036 310.00
78.1012 306.00
78.1664 330.00
78.2316 328.00
78.2968 346.00
78.362 337.00
78.4272 377.00
78.4924 415.00
78.5576 436.00
78.6228 523.00
78.688 558.00
78.7532 770.00
78.8184 1212.00
78.8836 1842.00
78.9488 2126.00
79.014 1594.00
79.0792 1284.00
79.1444 1349.00
79.2096 1108.00
79.2748 746.00
79.34 577.00
79.4052 454.00
79.4704 423.00
79.5356 355.00
79.6008 374.00
79.666 371.00
79.7312 374.00
79.7964 356.00
79.8616 318.00
79.9268 323.00
79.992 283.00
80.0572 308.00
80.1224 316.00
80.1876 304.00
80.2528 341.00
80.318 292.00
80.3832 299.00
80.4484 302.00
80.5136 328.00
80.5788 323.00
80.644 328.00
80.7092 332.00
80.7744 293.00
80.8396 308.00
80.9048 331.00
80.9699 317.00
81.0351 366.00
81.1003 379.00
81.1655 418.00
81.2307 475.00
81.2959 651.00
81.3611 803.00
81.4263 733.00
81.4915 542.00
81.5567 602.00
81.6219 577.00
81.6871 503.00
81.7523 432.00
81.8175 389.00
81.8827 334.00
81.9479 303.00
82.0131 314.00
82.0783 272.00
82.1435 289.00
82.2087 312.00
82.2739 309.00
82.3391 319.00
82.4043 315.00
82.4695 357.00
82.5347 303.00
82.5999 268.00
82.6651 294.00
82.7303 281.00
82.7955 324.00
82.8607 286.00
82.9259 282.00
82.9911 297.00
83.0563 285.00
83.1215 305.00
83.1867 336.00
83.2519 281.00
83.3171 301.00
83.3823 328.00
83.4475 356.00
83.5127 343.00
83.5779 356.00
83.6431 392.00
83.7083 455.00
83.7735 649.00
83.8387 929.00
83.9039 1304.00
83.9691 1376.00
84.0343 953.00
84.0995 821.00
84.1647 1010.00
84.2299 871.00
84.2951 604.00
84.3603 449.00
84.4255 420.00
84.4907 384.00
84.5559 337.00
84.6211 344.00
84.6863 376.00
84.7515 331.00
84.8167 285.00
84.8819 324.00
84.9471 315.00
85.0123 295.00
85.0775 296.00
85.1427 277.00
85.2079 290.00
85.2731 314.00
85.3383 319.00
85.4035 293.00
85.4687 303.00
85.5339 303.00
85.5991 295.00
85.6643 249.00
85.7295 282.00
85.7946 287.00
85.8598 239.00
85.925 288.00
85.9903 284.00
86.0554 283.00
86.1206 353.00
86.1858 284.00
86.251 266.00
86.3162 309.00
86.3814 336.00
86.4466 310.00
86.5118 305.00
86.577 330.00
86.6422 308.00
86.7074 366.00
86.7726 339.00
86.8378 358.00
86.903 338.00
86.9682 352.00
87.0334 333.00
87.0986 342.00
87.1638 369.00
87.229 431.00
87.2942 465.00
87.3594 577.00
87.4246 816.00
87.4898 762.00
87.555 593.00
87.6202 522.00
87.6854 560.00
87.7506 528.00
87.8158 442.00
87.881 371.00
87.9462 354.00
88.0114 330.00
88.0766 341.00
88.1418 283.00
88.207 296.00
88.2722 322.00
88.3374 263.00
88.4026 294.00
88.4678 360.00
88.533 301.00
88.5982 266.00
88.6634 285.00
88.7286 342.00
88.7938 313.00
88.859 300.00
88.9242 298.00
88.9894 318.00
89.0546 319.00
89.1198 324.00
89.185 306.00
89.2502 351.00
89.3154 340.00
89.3806 358.00
89.4458 394.00
89.511 350.00
89.5762 379.00
89.6414 437.00
89.7066 485.00
89.7718 547.00
89.837 796.00
89.9022 1198.00
89.9674 1499.00
90.0326 1397.00
90.0978 1109.00
90.163 943.00
90.2282 1069.00
90.2934 1077.00
90.3586 760.00
90.4238 598.00
90.489 549.00
90.5542 452.00
90.6193 457.00
90.6845 446.00
90.7497 462.00
90.8149 527.00
90.8801 621.00
90.9453 762.00
91.0105 1163.00
91.0757 1631.00
91.1409 1594.00
91.2061 1121.00
91.2713 938.00
91.3365 958.00
91.4017 1141.00
91.4669 808.00
91.5321 635.00
91.5973 477.00
91.6625 405.00
91.7277 347.00
91.7929 354.00
91.8581 336.00
91.9233 326.00
91.9885 313.00
92.0537 272.00
92.1189 334.00
92.1841 321.00
92.2493 311.00
92.3145 331.00
92.3797 301.00
92.4449 301.00
92.5101 313.00
92.5753 287.00
92.6405 296.00
92.7057 317.00
92.7709 335.00
92.8361 249.00
92.9013 336.00
92.9665 374.00
93.0317 327.00
93.0969 341.00
93.1621 355.00
93.2273 369.00
93.2925 456.00
93.3577 556.00
93.4229 749.00
93.4881 938.00
93.5533 826.00
93.6185 619.00
93.6837 585.00
93.7489 630.00
93.8141 689.00
93.8793 505.00
93.9445 442.00
94.0097 398.00
94.0749 416.00
94.1401 374.00
94.2053 429.00
94.2705 387.00
94.3357 372.00
94.4009 341.00
94.4661 358.00
94.5313 356.00
94.5965 357.00
94.6617 319.00
94.7269 311.00
94.7921 279.00
94.8573 301.00
94.9225 346.00
94.9877 297.00
95.0529 326.00
95.1181 259.00
95.1833 271.00
95.2485 302.00
95.3137 296.00
95.3789 277.00
95.444 303.00
95.5092 330.00
95.5744 323.00
95.6396 348.00
95.7048 291.00
95.77 346.00
95.8352 358.00
95.9004 339.00
95.9656 387.00
96.0308 454.00
96.096 630.00
96.1612 745.00
96.2264 842.00
96.2916 709.00
96.3568 542.00
96.422 613.00
96.4872 570.00
96.5524 640.00
96.6176 484.00
96.6828 407.00
96.748 341.00
96.8132 341.00
96.8784 328.00
96.9436 296.00
97.0088 300.00
97.074 284.00
97.1392 265.00
97.2044 280.00
97.2696 325.00
97.3348 288.00
97.4 268.00
97.4652 281.00
97.5304 303.00
97.5956 272.00
97.6608 295.00
97.726 295.00
97.7912 278.00
97.8564 280.00
97.9216 245.00
97.9868 278.00
98.052 275.00
98.1172 290.00
98.1824 244.00
98.2476 295.00
98.3128 319.00
98.378 284.00
98.4432 268.00
98.5084 263.00
98.5736 285.00
98.6388 298.00
98.704 281.00
98.7692 308.00
98.8344 300.00
98.8996 274.00
98.9648 284.00
99.03 312.00
99.0952 276.00
99.1604 269.00
99.2256 297.00
99.2908 293.00
99.356 312.00
99.4212 299.00
99.4864 273.00
99.5516 298.00
99.6168 270.00
99.682 247.00
99.7472 291.00
99.8124 315.00
99.8776 283.00
99.9428 294.00
100.008 290.00
100.073 280.00
100.095 296.00