File: data/xrd_creation/results/PG_2045-1.xy
9.903433 2981.00
9.968632 3003.00
10.0338 2924.00
10.099 2886.00
10.1642 2864.00
10.2294 2875.00
10.2946 2748.00
10.3598 2838.00
10.425 2846.00
10.4902 2794.00
10.5554 2748.00
10.6206 2769.00
10.6858 2709.00
10.751 2729.00
10.8162 2711.00
10.8814 2636.00
10.9466 2659.00
11.0118 2674.00
11.077 2618.00
11.1422 2590.00
11.2074 2699.00
11.2726 2602.00
11.3378 2569.00
11.403 2699.00
11.4682 2428.00
11.5334 2534.00
11.5986 2522.00
11.6638 2467.00
11.729 2528.00
11.7942 2465.00
11.8594 2519.00
11.9246 2560.00
11.9898 2419.00
12.055 2542.00
12.1202 2422.00
12.1854 2485.00
12.2506 2393.00
12.3158 2483.00
12.381 2449.00
12.4462 2352.00
12.5114 2337.00
12.5766 2430.00
12.6418 2351.00
12.707 2382.00
12.7722 2342.00
12.8374 2380.00
12.9026 2315.00
12.9678 2417.00
13.033 2473.00
13.0982 2392.00
13.1634 2362.00
13.2286 2367.00
13.2938 2331.00
13.359 2283.00
13.4242 2243.00
13.4894 2389.00
13.5546 2361.00
13.6198 2316.00
13.685 2256.00
13.7502 2302.00
13.8154 2313.00
13.8805 2310.00
13.9457 2333.00
14.0109 2372.00
14.0761 2398.00
14.1413 2361.00
14.2065 2208.00
14.2717 2331.00
14.3369 2296.00
14.4021 2252.00
14.4673 2247.00
14.5325 2146.00
14.5977 2288.00
14.6629 2204.00
14.7281 2193.00
14.7933 2294.00
14.8585 2146.00
14.9237 2193.00
14.9889 2187.00
15.0541 2303.00
15.1193 2149.00
15.1845 2176.00
15.2497 2162.00
15.3149 2163.00
15.3801 2214.00
15.4453 2201.00
15.5105 2201.00
15.5757 2141.00
15.6409 2125.00
15.7061 2244.00
15.7713 2168.00
15.8365 2125.00
15.9017 2096.00
15.9669 2107.00
16.0321 2116.00
16.0973 2126.00
16.1625 2146.00
16.2277 2175.00
16.2929 2187.00
16.3581 2105.00
16.4233 2114.00
16.4885 2041.00
16.5537 2162.00
16.6189 2076.00
16.6841 2071.00
16.7493 2150.00
16.8145 2142.00
16.8797 2015.00
16.9449 2081.00
17.0101 2142.00
17.0753 2121.00
17.1405 2200.00
17.2057 2205.00
17.2709 2126.00
17.3361 2087.00
17.4013 2212.00
17.4665 2237.00
17.5317 2488.00
17.5969 2710.00
17.6621 3302.00
17.7273 3922.00
17.7925 2880.00
17.8577 2170.00
17.9229 2039.00
17.9881 2082.00
18.0533 2146.00
18.1185 2102.00
18.1837 2003.00
18.2489 2014.00
18.3141 2117.00
18.3793 2132.00
18.4445 2124.00
18.5097 2133.00
18.5749 2022.00
18.6401 2004.00
18.7052 1953.00
18.7704 2039.00
18.8356 2042.00
18.9008 2038.00
18.966 2030.00
19.0312 2056.00
19.0964 1980.00
19.1616 1913.00
19.2268 1900.00
19.292 1895.00
19.3572 2065.00
19.4224 1957.00
19.4876 1997.00
19.5528 1900.00
19.618 1966.00
19.6832 1934.00
19.7484 1906.00
19.8136 1967.00
19.8788 1952.00
19.944 2056.00
20.0092 1963.00
20.0744 1992.00
20.1396 2031.00
20.2048 2056.00
20.27 1979.00
20.3352 2073.00
20.4004 2146.00
20.4656 2244.00
20.5308 2291.00
20.596 2461.00
20.6612 2531.00
20.7264 2424.00
20.7916 2084.00
20.8568 2102.00
20.922 2008.00
20.9872 2017.00
21.0524 1971.00
21.1176 1904.00
21.1828 2015.00
21.248 1997.00
21.3132 2008.00
21.3784 2100.00
21.4436 1897.00
21.5088 1992.00
21.574 1844.00
21.6392 1840.00
21.7044 1815.00
21.7696 1938.00
21.8348 1858.00
21.9 1849.00
21.9652 1801.00
22.0304 1835.00
22.0956 1851.00
22.1608 1834.00
22.226 1949.00
22.2912 1816.00
22.3564 1868.00
22.4216 1814.00
22.4868 1796.00
22.552 1824.00
22.6172 1766.00
22.6824 1790.00
22.7476 1831.00
22.8128 1770.00
22.878 1797.00
22.9432 1860.00
23.0084 1807.00
23.0736 1851.00
23.1388 1793.00
23.204 1789.00
23.2692 1825.00
23.3344 1799.00
23.3996 1906.00
23.4647 1939.00
23.5299 1862.00
23.5951 1894.00
23.6603 2002.00
23.7255 1942.00
23.7907 2067.00
23.8559 2263.00
23.9211 2665.00
23.9863 3551.00
24.0515 5789.00
24.1167 10418.00
24.1819 15743.00
24.2471 8571.00
24.3123 2849.00
24.3775 2169.00
24.4427 2065.00
24.5079 2125.00
24.5731 1867.00
24.6383 2057.00
24.7035 1957.00
24.7687 2012.00
24.8339 2032.00
24.8991 2118.00
24.9643 2284.00
25.0295 2363.00
25.0947 2502.00
25.1599 2980.00
25.2251 3867.00
25.2903 5535.00
25.3555 8667.00
25.4207 13640.00
25.4859 17956.00
25.5511 15373.00
25.6163 10194.00
25.6815 6774.00
25.7467 5745.00
25.8119 5631.00
25.8771 5882.00
25.9423 6548.00
26.0075 7411.00
26.0727 7914.00
26.1379 7171.00
26.2031 5311.00
26.2683 3598.00
26.3335 2721.00
26.3987 2419.00
26.4639 2233.00
26.5291 2110.00
26.5943 2030.00
26.6595 1947.00
26.7247 1862.00
26.7899 1822.00
26.8551 1868.00
26.9203 1808.00
26.9855 1856.00
27.0507 1863.00
27.1159 1823.00
27.1811 1739.00
27.2463 1766.00
27.3115 1750.00
27.3767 1693.00
27.4419 1757.00
27.5071 1753.00
27.5723 1695.00
27.6375 1706.00
27.7027 1704.00
27.7679 1717.00
27.8331 1741.00
27.8983 1704.00
27.9635 1723.00
28.0287 1703.00
28.0939 1769.00
28.1591 1746.00
28.2243 1671.00
28.2894 1629.00
28.3546 1668.00
28.4198 1776.00
28.485 1648.00
28.5502 1708.00
28.6154 1712.00
28.6806 1683.00
28.7458 1769.00
28.811 1681.00
28.8762 1730.00
28.9414 1743.00
29.0066 1723.00
29.0718 1829.00
29.137 1778.00
29.2022 1730.00
29.2674 1718.00
29.3326 1774.00
29.3978 1810.00
29.463 1797.00
29.5282 1738.00
29.5934 1803.00
29.6586 1794.00
29.7238 2068.00
29.789 2434.00
29.8542 3431.00
29.9194 4802.00
29.9846 5404.00
30.0498 3627.00
30.115 2239.00
30.1802 1901.00
30.2454 1794.00
30.3106 1727.00
30.3758 1724.00
30.441 1755.00
30.5062 1778.00
30.5714 1769.00
30.6366 1755.00
30.7018 1900.00
30.767 2190.00
30.8322 2718.00
30.8974 4472.00
30.9626 8790.00
31.0278 14084.00
31.093 8958.00
31.1582 4126.00
31.2234 2265.00
31.2886 2182.00
31.3538 2056.00
31.419 1972.00
31.4842 2047.00
31.5494 2095.00
31.6146 2293.00
31.6798 2447.00
31.745 2810.00
31.8102 3038.00
31.8754 2887.00
31.9406 2393.00
32.0058 2049.00
32.071 1901.00
32.1362 1774.00
32.2014 1727.00
32.2666 1628.00
32.3318 1583.00
32.397 1545.00
32.4622 1587.00
32.5274 1522.00
32.5926 1651.00
32.6578 1587.00
32.723 1503.00
32.7882 1568.00
32.8534 1553.00
32.9186 1506.00
32.9838 1532.00
33.0489 1481.00
33.1141 1535.00
33.1793 1570.00
33.2445 1582.00
33.3097 1531.00
33.3749 1545.00
33.4401 1503.00
33.5053 1504.00
33.5705 1589.00
33.6357 1655.00
33.7009 1567.00
33.7661 1535.00
33.8313 1532.00
33.8965 1626.00
33.9617 1571.00
34.0269 1652.00
34.0921 1721.00
34.1573 2042.00
34.2225 2983.00
34.2877 4709.00
34.3529 3732.00
34.4181 2693.00
34.4833 1818.00
34.5485 1763.00
34.6137 1756.00
34.6789 1955.00
34.7441 2018.00
34.8093 2153.00
34.8745 2139.00
34.9397 2017.00
35.0049 1908.00
35.0701 1879.00
35.1353 1930.00
35.2005 1926.00
35.2657 2260.00
35.3309 2589.00
35.3961 3141.00
35.4613 3719.00
35.5265 4239.00
35.5917 3495.00
35.6569 2940.00
35.7221 2454.00
35.7873 2256.00
35.8525 2228.00
35.9177 2151.00
35.9829 2113.00
36.0481 2151.00
36.1133 2175.00
36.1785 2129.00
36.2437 2258.00
36.3089 2745.00
36.3741 3695.00
36.4393 5024.00
36.5045 6435.00
36.5697 6375.00
36.6349 5798.00
36.7001 5513.00
36.7653 5860.00
36.8305 5781.00
36.8957 5632.00
36.9609 4640.00
37.0261 3478.00
37.0913 2598.00
37.1565 2108.00
37.2217 1911.00
37.2869 1773.00
37.3521 1724.00
37.4173 1584.00
37.4825 1543.00
37.5477 1552.00
37.6129 1562.00
37.6781 1529.00
37.7433 1455.00
37.8085 1511.00
37.8736 1523.00
37.9388 1444.00
38.004 1480.00
38.0692 1506.00
38.1344 1394.00
38.1996 1458.00
38.2648 1480.00
38.33 1606.00
38.3952 1757.00
38.4604 1948.00
38.5256 1798.00
38.5908 1836.00
38.656 2283.00
38.7212 3163.00
38.7864 2540.00
38.8516 2388.00
38.9168 1545.00
38.982 1567.00
39.0472 1495.00
39.1124 1483.00
39.1776 1481.00
39.2428 1427.00
39.308 1464.00
39.3732 1402.00
39.4384 1475.00
39.5036 1347.00
39.5688 1474.00
39.634 1441.00
39.6992 1429.00
39.7644 1572.00
39.8296 1500.00
39.8948 1561.00
39.96 1567.00
40.0252 1589.00
40.0904 1553.00
40.1556 1587.00
40.2208 1563.00
40.286 1509.00
40.3512 1424.00
40.4164 1551.00
40.4816 1441.00
40.5468 1431.00
40.612 1534.00
40.6772 1449.00
40.7424 1416.00
40.8076 1639.00
40.8728 1890.00
40.938 2065.00
41.0032 1781.00
41.0684 1651.00
41.1336 1484.00
41.1988 1474.00
41.264 1525.00
41.3292 1580.00
41.3944 1780.00
41.4596 1923.00
41.5248 2213.00
41.59 2452.00
41.6552 2715.00
41.7204 2548.00
41.7856 2231.00
41.8508 1897.00
41.916 1769.00
41.9812 1689.00
42.0464 1606.00
42.1116 1493.00
42.1768 1561.00
42.242 1442.00
42.3072 1396.00
42.3724 1473.00
42.4376 1482.00
42.5028 1506.00
42.568 1402.00
42.6332 1492.00
42.6983 1505.00
42.7635 1439.00
42.8287 1526.00
42.8939 1464.00
42.9591 1578.00
43.0243 1637.00
43.0895 1654.00
43.1547 1764.00
43.2199 1685.00
43.2851 1544.00
43.3503 1638.00
43.4155 1492.00
43.4807 1562.00
43.5459 1533.00
43.6111 1504.00
43.6763 1497.00
43.7415 1529.00
43.8067 1483.00
43.8719 1561.00
43.9371 1706.00
44.0023 1885.00
44.0675 1994.00
44.1327 2438.00
44.1979 2950.00
44.2631 3971.00
44.3283 5683.00
44.3935 6657.00
44.4587 6250.00
44.5239 5096.00
44.5891 3882.00
44.6543 2848.00
44.7195 2441.00
44.7847 2116.00
44.8499 2022.00
44.9151 1873.00
44.9803 1752.00
45.0455 1843.00
45.1107 1750.00
45.1759 1708.00
45.2411 1783.00
45.3063 1805.00
45.3715 1826.00
45.4367 1909.00
45.5019 1995.00
45.5671 2065.00
45.6323 2197.00
45.6975 2402.00
45.7627 2701.00
45.8279 3000.00
45.8931 3365.00
45.9583 3773.00
46.0235 4274.00
46.0887 3265.00
46.1539 2917.00
46.2191 2125.00
46.2843 1850.00
46.3495 1777.00
46.4147 1728.00
46.4799 1820.00
46.5451 2038.00
46.6103 2602.00
46.6755 4385.00
46.7407 8357.00
46.8059 6230.00
46.8711 6022.00
46.9363 3948.00
47.0015 2938.00
47.0667 2611.00
47.1319 2392.00
47.1971 2138.00
47.2623 2135.00
47.3275 2008.00
47.3927 1907.00
47.4579 2005.00
47.523 2047.00
47.5882 2076.00
47.6534 2221.00
47.7186 2476.00
47.7838 2890.00
47.849 3426.00
47.9142 4478.00
47.9794 4836.00
48.0446 4387.00
48.1098 3574.00
48.175 2790.00
48.2402 2205.00
48.3054 1799.00
48.3706 1693.00
48.4358 1486.00
48.501 1575.00
48.5662 1474.00
48.6314 1468.00
48.6966 1425.00
48.7618 1557.00
48.827 1403.00
48.8922 1415.00
48.9574 1438.00
49.0226 1452.00
49.0878 1606.00
49.153 1619.00
49.2182 1533.00
49.2834 1470.00
49.3486 1373.00
49.4138 1470.00
49.479 1460.00
49.5442 1438.00
49.6094 1479.00
49.6746 1452.00
49.7398 1400.00
49.805 1509.00
49.8702 1529.00
49.9354 1615.00
50.0006 1813.00
50.0658 2178.00
50.131 3065.00
50.1962 4120.00
50.2614 4459.00
50.3266 4097.00
50.3918 3682.00
50.457 3268.00
50.5222 3101.00
50.5874 3044.00
50.6526 2435.00
50.7178 2283.00
50.783 1866.00
50.8482 1709.00
50.9134 1619.00
50.9786 1530.00
51.0438 1498.00
51.109 1472.00
51.1742 1445.00
51.2394 1354.00
51.3046 1272.00
51.3698 1392.00
51.435 1366.00
51.5002 1340.00
51.5654 1381.00
51.6306 1402.00
51.6958 1393.00
51.761 1444.00
51.8262 1487.00
51.8914 1686.00
51.9566 1670.00
52.0218 1679.00
52.087 1625.00
52.1522 1556.00
52.2174 1531.00
52.2826 1442.00
52.3477 1401.00
52.4129 1417.00
52.4781 1426.00
52.5433 1486.00
52.6085 1283.00
52.6737 1443.00
52.7389 1321.00
52.8041 1309.00
52.8693 1312.00
52.9345 1379.00
52.9997 1339.00
53.0649 1389.00
53.1301 1353.00
53.1953 1424.00
53.2605 1470.00
53.3257 1491.00
53.3909 1477.00
53.4561 1393.00
53.5213 1386.00
53.5865 1294.00
53.6517 1347.00
53.7169 1325.00
53.7821 1365.00
53.8473 1306.00
53.9125 1346.00
53.9777 1288.00
54.0429 1285.00
54.1081 1270.00
54.1733 1370.00
54.2385 1460.00
54.3037 1354.00
54.3689 1397.00
54.4341 1365.00
54.4993 1276.00
54.5645 1357.00
54.6297 1294.00
54.6949 1257.00
54.7601 1334.00
54.8253 1267.00
54.8905 1319.00
54.9557 1293.00
55.0209 1365.00
55.0861 1343.00
55.1513 1435.00
55.2165 1654.00
55.2817 2112.00
55.3469 2646.00
55.4121 1933.00
55.4773 1989.00
55.5425 1609.00
55.6077 1387.00
55.6729 1363.00
55.7381 1314.00
55.8033 1244.00
55.8685 1308.00
55.9337 1296.00
55.9989 1199.00
56.0641 1290.00
56.1293 1256.00
56.1945 1316.00
56.2597 1329.00
56.3249 1309.00
56.3901 1311.00
56.4553 1327.00
56.5205 1321.00
56.5857 1438.00
56.6509 1361.00
56.7161 1328.00
56.7813 1483.00
56.8465 1436.00
56.9117 1480.00
56.9769 1516.00
57.042 1495.00
57.1073 1494.00
57.1724 1493.00
57.2376 1456.00
57.3028 1605.00
57.368 1557.00
57.4332 1813.00
57.4984 1852.00
57.5636 1907.00
57.6288 1875.00
57.694 1840.00
57.7592 1795.00
57.8244 1686.00
57.8896 1633.00
57.9548 1520.00
58.02 1529.00
58.0852 1499.00
58.1504 1433.00
58.2156 1481.00
58.2808 1405.00
58.346 1413.00
58.4112 1460.00
58.4764 1500.00
58.5416 1566.00
58.6068 2065.00
58.672 2497.00
58.7372 1799.00
58.8024 2068.00
58.8676 1861.00
58.9328 1840.00
58.998 2226.00
59.0632 3182.00
59.1284 2692.00
59.1936 2487.00
59.2588 2492.00
59.324 1765.00
59.3892 1636.00
59.4544 1661.00
59.5196 1569.00
59.5848 1523.00
59.65 1579.00
59.7152 1535.00
59.7804 1572.00
59.8456 1678.00
59.9108 1689.00
59.976 1887.00
60.0412 2035.00
60.1064 2093.00
60.1716 1902.00
60.2368 1820.00
60.302 1643.00
60.3672 1432.00
60.4324 1404.00
60.4976 1302.00
60.5628 1316.00
60.628 1213.00
60.6932 1304.00
60.7584 1353.00
60.8236 1201.00
60.8888 1252.00
60.954 1243.00
61.0192 1286.00
61.0844 1246.00
61.1496 1176.00
61.2148 1184.00
61.28 1204.00
61.3452 1251.00
61.4104 1278.00
61.4756 1175.00
61.5408 1207.00
61.606 1255.00
61.6712 1334.00
61.7364 1425.00
61.8016 1365.00
61.8667 1423.00
61.932 1414.00
61.9971 1305.00
62.0623 1241.00
62.1275 1278.00
62.1927 1189.00
62.2579 1152.00
62.3231 1123.00
62.3883 1227.00
62.4535 1235.00
62.5187 1204.00
62.5839 1257.00
62.6491 1199.00
62.7143 1279.00
62.7795 1367.00
62.8447 1372.00
62.9099 1433.00
62.9751 1445.00
63.0403 1526.00
63.1055 1521.00
63.1707 1475.00
63.2359 1545.00
63.3011 1395.00
63.3663 1299.00
63.4315 1226.00
63.4967 1343.00
63.5619 1379.00
63.6271 1190.00
63.6923 1363.00
63.7575 1329.00
63.8227 1445.00
63.8879 1541.00
63.9531 1590.00
64.0183 1746.00
64.0835 1866.00
64.1487 2256.00
64.2139 2746.00
64.2791 2398.00
64.3443 1964.00
64.4095 2074.00
64.4747 1766.00
64.5399 1454.00
64.6051 1499.00
64.6703 1320.00
64.7355 1362.00
64.8007 1312.00
64.8659 1358.00
64.9311 1231.00
64.9963 1261.00
65.0615 1258.00
65.1267 1330.00
65.1919 1308.00
65.2571 1288.00
65.3223 1433.00
65.3875 1474.00
65.4527 1513.00
65.5179 1497.00
65.5831 1528.00
65.6483 1634.00
65.7135 1681.00
65.7787 1854.00
65.8439 1777.00
65.9091 1661.00
65.9743 1701.00
66.0395 1658.00
66.1047 1584.00
66.1699 1482.00
66.2351 1626.00
66.3003 1532.00
66.3655 1514.00
66.4307 1424.00
66.4959 1411.00
66.561 1366.00
66.6263 1329.00
66.6915 1397.00
66.7566 1361.00
66.8218 1361.00
66.887 1378.00
66.9522 1430.00
67.0174 1309.00
67.0826 1293.00
67.1478 1296.00
67.213 1213.00
67.2782 1186.00
67.3434 1233.00
67.4086 1207.00
67.4738 1151.00
67.539 1140.00
67.6042 1130.00
67.6694 1203.00
67.7346 1194.00
67.7998 1150.00
67.865 1167.00
67.9302 1147.00
67.9954 1196.00
68.0606 1203.00
68.1258 1136.00
68.191 1162.00
68.2562 1188.00
68.3214 1208.00
68.3866 1171.00
68.4518 1182.00
68.517 1169.00
68.5822 1188.00
68.6474 1167.00
68.7126 1223.00
68.7778 1214.00
68.843 1179.00
68.9082 1243.00
68.9734 1203.00
69.0386 1171.00
69.1038 1188.00
69.169 1123.00
69.2342 1145.00
69.2994 1208.00
69.3646 1226.00
69.4298 1269.00
69.495 1174.00
69.5602 1201.00
69.6254 1192.00
69.6906 1230.00
69.7558 1233.00
69.821 1330.00
69.8862 1756.00
69.9514 2461.00
70.0166 1551.00
70.0818 1536.00
70.147 1815.00
70.2122 1366.00
70.2774 1171.00
70.3426 1252.00
70.4078 1120.00
70.473 1198.00
70.5382 1108.00
70.6034 1181.00
70.6686 1186.00
70.7338 1226.00
70.799 1161.00
70.8642 1193.00
70.9294 1200.00
70.9946 1169.00
71.0598 1201.00
71.125 1204.00
71.1902 1199.00
71.2554 1179.00
71.3205 1156.00
71.3858 1223.00
71.451 1167.00
71.5162 1241.00
71.5813 1211.00
71.6465 1227.00
71.7117 1366.00
71.7769 1651.00
71.8421 1601.00
71.9073 1345.00
71.9725 1491.00
72.0377 1527.00
72.1029 1563.00
72.1681 1668.00
72.2333 1790.00
72.2985 1844.00
72.3637 1698.00
72.4289 1659.00
72.4941 1571.00
72.5593 1517.00
72.6245 1529.00
72.6897 1471.00
72.7549 1344.00
72.8201 1347.00
72.8853 1343.00
72.9505 1382.00
73.0157 1425.00
73.0809 1386.00
73.1461 1434.00
73.2113 1500.00
73.2765 1489.00
73.3417 1517.00
73.4069 1415.00
73.4721 1462.00
73.5373 1452.00
73.6025 1560.00
73.6677 1673.00
73.7329 1645.00
73.7981 1933.00
73.8633 1966.00
73.9285 2264.00
73.9937 2200.00
74.0589 2158.00
74.1241 2133.00
74.1893 2101.00
74.2545 1927.00
74.3197 1952.00
74.3849 1830.00
74.4501 1807.00
74.5153 1825.00
74.5805 1952.00
74.6457 2276.00
74.7109 2740.00
74.7761 1953.00
74.8413 1950.00
74.9065 2042.00
74.9717 1784.00
75.0369 1549.00
75.1021 1601.00
75.1673 1533.00
75.2325 1630.00
75.2977 1637.00
75.3629 1729.00
75.4281 1734.00
75.4933 1711.00
75.5585 1636.00
75.6237 1620.00
75.6889 1580.00
75.7541 1592.00
75.8193 1488.00
75.8845 1432.00
75.9497 1479.00
76.0149 1499.00
76.0801 1486.00
76.1452 1573.00
76.2104 1597.00
76.2756 1607.00
76.3409 1544.00
76.406 1424.00
76.4712 1537.00
76.5364 1467.00
76.6016 1379.00
76.6668 1296.00
76.732 1329.00
76.7972 1341.00
76.8624 1434.00
76.9276 1394.00
76.9928 1328.00
77.058 1422.00
77.1232 1418.00
77.1884 1396.00
77.2536 1359.00
77.3188 1317.00
77.384 1376.00
77.4492 1342.00
77.5144 1385.00
77.5796 1344.00
77.6448 1454.00
77.71 1453.00
77.7752 1529.00
77.8404 1520.00
77.9056 1524.00
77.9708 1536.00
78.036 1451.00
78.1012 1286.00
78.1664 1275.00
78.2316 1251.00
78.2968 1269.00
78.362 1292.00
78.4272 1298.00
78.4924 1184.00
78.5576 1268.00
78.6228 1168.00
78.688 1150.00
78.7532 1091.00
78.8184 1240.00
78.8836 1203.00
78.9488 1157.00
79.014 1191.00
79.0792 1155.00
79.1444 1177.00
79.2096 1162.00
79.2748 1169.00
79.34 1073.00
79.4052 1158.00
79.4704 1246.00
79.5356 1271.00
79.6008 1420.00
79.666 1672.00
79.7312 2056.00
79.7964 1494.00
79.8616 1512.00
79.9268 1728.00
79.992 1710.00
80.0572 1923.00
80.1224 1857.00
80.1876 1493.00
80.2528 1541.00
80.318 1692.00
80.3832 1576.00
80.4484 1436.00
80.5136 1403.00
80.5788 1325.00
80.644 1384.00
80.7092 1330.00
80.7744 1292.00
80.8396 1308.00
80.9048 1291.00
80.9699 1176.00
81.0351 1219.00
81.1003 1209.00
81.1655 1209.00
81.2307 1268.00
81.2959 1228.00
81.3611 1167.00
81.4263 1228.00
81.4915 1321.00
81.5567 1247.00
81.6219 1386.00
81.6871 1318.00
81.7523 1305.00
81.8175 1638.00
81.8827 1824.00
81.9479 1436.00
82.0131 1444.00
82.0783 1537.00
82.1435 1700.00
82.2087 1514.00
82.2739 1538.00
82.3391 1408.00
82.4043 1433.00
82.4695 1411.00
82.5347 1426.00
82.5999 1382.00
82.6651 1331.00
82.7303 1350.00
82.7955 1300.00
82.8607 1276.00
82.9259 1205.00
82.9911 1298.00
83.0563 1273.00
83.1215 1327.00
83.1867 1397.00
83.2519 1417.00
83.3171 1457.00
83.3823 1508.00
83.4475 1456.00
83.5127 1499.00
83.5779 1469.00
83.6431 1439.00
83.7083 1426.00
83.7735 1368.00
83.8387 1325.00
83.9039 1258.00
83.9691 1251.00
84.0343 1288.00
84.0995 1213.00
84.1647 1256.00
84.2299 1214.00
84.2951 1266.00
84.3603 1320.00
84.4255 1368.00
84.4907 1248.00
84.5559 1274.00
84.6211 1301.00
84.6863 1282.00
84.7515 1267.00
84.8167 1195.00
84.8819 1177.00
84.9471 1154.00
85.0123 1196.00
85.0775 1242.00
85.1427 1191.00
85.2079 1214.00
85.2731 1369.00
85.3383 1272.00
85.4035 1373.00
85.4687 1288.00
85.5339 1337.00
85.5991 1375.00
85.6643 1563.00
85.7295 1377.00
85.7946 1254.00
85.8598 1269.00
85.925 1370.00
85.9903 1253.00
86.0554 1211.00
86.1206 1183.00
86.1858 1197.00
86.251 1107.00
86.3162 1131.00
86.3814 1166.00
86.4466 1216.00
86.5118 1120.00
86.577 1081.00
86.6422 1177.00
86.7074 1192.00
86.7726 1089.00
86.8378 1112.00
86.903 1145.00
86.9682 1126.00
87.0334 1165.00
87.0986 1194.00
87.1638 1180.00
87.229 1154.00
87.2942 1200.00
87.3594 1217.00
87.4246 1199.00
87.4898 1178.00
87.555 1267.00
87.6202 1199.00
87.6854 1191.00
87.7506 1155.00
87.8158 1211.00
87.881 1235.00
87.9462 1199.00
88.0114 1143.00
88.0766 1207.00
88.1418 1211.00
88.207 1239.00
88.2722 1148.00
88.3374 1079.00
88.4026 1087.00
88.4678 1189.00
88.533 1268.00
88.5982 1216.00
88.6634 1146.00
88.7286 1199.00
88.7938 1219.00
88.859 1143.00
88.9242 1172.00
88.9894 1134.00
89.0546 1150.00
89.1198 1125.00
89.185 1124.00
89.2502 1175.00
89.3154 1239.00
89.3806 1198.00
89.4458 1198.00
89.511 1222.00
89.5762 1117.00
89.6414 1174.00
89.7066 1255.00
89.7718 1200.00
89.837 1171.00
89.9022 1130.00
89.9674 1280.00
90.0326 1214.00
90.0978 1140.00
90.163 1199.00
90.2282 1163.00
90.2934 1193.00
90.3586 1119.00
90.4238 1120.00
90.489 1081.00
90.5542 1129.00
90.6193 1164.00
90.6845 1149.00
90.7497 1097.00
90.8149 1133.00
90.8801 1132.00
90.9453 1164.00
91.0105 1104.00
91.0757 1114.00
91.1409 1120.00
91.2061 1113.00
91.2713 1179.00
91.3365 1160.00
91.4017 1168.00
91.4669 1178.00
91.5321 1181.00
91.5973 1204.00
91.6625 1261.00
91.7277 1269.00
91.7929 1281.00
91.8581 1240.00
91.9233 1270.00
91.9885 1306.00
92.0537 1289.00
92.1189 1288.00
92.1841 1279.00
92.2493 1184.00
92.3145 1279.00
92.3797 1171.00
92.4449 1160.00
92.5101 1135.00
92.5753 1063.00
92.6405 1149.00
92.7057 1165.00
92.7709 1138.00
92.8361 1124.00
92.9013 1214.00
92.9665 1151.00
93.0317 1144.00
93.0969 1077.00
93.1621 1042.00
93.2273 1141.00
93.2925 1138.00
93.3577 1146.00
93.4229 1150.00
93.4881 1075.00
93.5533 1162.00
93.6185 1141.00
93.6837 1157.00
93.7489 1181.00
93.8141 1153.00
93.8793 1251.00
93.9445 1309.00
94.0097 1398.00
94.0749 1373.00
94.1401 1252.00
94.2053 1307.00
94.2705 1234.00
94.3357 1389.00
94.4009 1359.00
94.4661 1326.00
94.5313 1355.00
94.5965 1318.00
94.6617 1213.00
94.7269 1280.00
94.7921 1390.00
94.8573 1438.00
94.9225 1371.00
94.9877 1459.00
95.0529 1482.00
95.1181 1452.00
95.1833 1427.00
95.2485 1418.00
95.3137 1557.00
95.3789 1542.00
95.444 1722.00
95.5092 1632.00
95.5744 1386.00
95.6396 1428.00
95.7048 1420.00
95.77 1530.00
95.8352 1417.00
95.9004 1403.00
95.9656 1295.00
96.0308 1187.00
96.096 1224.00
96.1612 1213.00
96.2264 1290.00
96.2916 1252.00
96.3568 1204.00
96.422 1304.00
96.4872 1263.00
96.5524 1428.00
96.6176 1373.00
96.6828 1206.00
96.748 1234.00
96.8132 1314.00
96.8784 1419.00
96.9436 1299.00
97.0088 1220.00
97.074 1294.00
97.1392 1343.00
97.2044 1336.00
97.2696 1327.00
97.3348 1416.00
97.4 1416.00
97.4652 1345.00
97.5304 1321.00
97.5956 1296.00
97.6608 1328.00
97.726 1319.00
97.7912 1282.00
97.8564 1150.00
97.9216 1199.00
97.9868 1197.00
98.052 1263.00
98.1172 1187.00
98.1824 1262.00
98.2476 1165.00
98.3128 1176.00
98.378 1164.00
98.4432 1179.00
98.5084 1114.00
98.5736 1107.00
98.6388 1198.00
98.704 1086.00
98.7692 1196.00
98.8344 1191.00
98.8996 1194.00
98.9648 1167.00
99.03 1157.00
99.0952 1253.00
99.1604 1225.00
99.2256 1292.00
99.2908 1330.00
99.356 1437.00
99.4212 1261.00
99.4864 1346.00
99.5516 1373.00
99.6168 1367.00
99.682 1650.00
99.7472 1713.00
99.8124 1365.00
99.8776 1266.00
99.9428 1277.00
100.008 1352.00
100.073 1412.00
100.095 1377.00