File: data/xrd_creation/results/PG_2249-1.xy
9.903433 2482.00
9.968632 2449.00
10.0338 2398.00
10.099 2398.00
10.1642 2406.00
10.2294 2369.00
10.2946 2257.00
10.3598 2328.00
10.425 2326.00
10.4902 2277.00
10.5554 2184.00
10.6206 2294.00
10.6858 2264.00
10.751 2197.00
10.8162 2135.00
10.8814 2195.00
10.9466 2154.00
11.0118 2135.00
11.077 2184.00
11.1422 2025.00
11.2074 1988.00
11.2726 2002.00
11.3378 2106.00
11.403 2039.00
11.4682 2077.00
11.5334 1933.00
11.5986 1927.00
11.6638 1971.00
11.729 1815.00
11.7942 1954.00
11.8594 1881.00
11.9246 1858.00
11.9898 1840.00
12.055 1862.00
12.1202 1813.00
12.1854 1809.00
12.2506 1795.00
12.3158 1861.00
12.381 1838.00
12.4462 1833.00
12.5114 1971.00
12.5766 1867.00
12.6418 1966.00
12.707 1946.00
12.7722 1768.00
12.8374 1587.00
12.9026 1737.00
12.9678 1703.00
13.033 1668.00
13.0982 1714.00
13.1634 1616.00
13.2286 1602.00
13.2938 1628.00
13.359 1579.00
13.4242 1710.00
13.4894 1613.00
13.5546 1825.00
13.6198 1719.00
13.685 1813.00
13.7502 1815.00
13.8154 1719.00
13.8805 1577.00
13.9457 1550.00
14.0109 1559.00
14.0761 1475.00
14.1413 1484.00
14.2065 1503.00
14.2717 1511.00
14.3369 1491.00
14.4021 1555.00
14.4673 1571.00
14.5325 1586.00
14.5977 1653.00
14.6629 1708.00
14.7281 1769.00
14.7933 1889.00
14.8585 1689.00
14.9237 1511.00
14.9889 1437.00
15.0541 1378.00
15.1193 1426.00
15.1845 1390.00
15.2497 1405.00
15.3149 1443.00
15.3801 1341.00
15.4453 1413.00
15.5105 1368.00
15.5757 1362.00
15.6409 1306.00
15.7061 1374.00
15.7713 1300.00
15.8365 1304.00
15.9017 1300.00
15.9669 1360.00
16.0321 1356.00
16.0973 1310.00
16.1625 1324.00
16.2277 1374.00
16.2929 1280.00
16.3581 1230.00
16.4233 1319.00
16.4885 1291.00
16.5537 1307.00
16.6189 1238.00
16.6841 1248.00
16.7493 1274.00
16.8145 1276.00
16.8797 1273.00
16.9449 1329.00
17.0101 1284.00
17.0753 1249.00
17.1405 1328.00
17.2057 1328.00
17.2709 1420.00
17.3361 1422.00
17.4013 1274.00
17.4665 1200.00
17.5317 1217.00
17.5969 1225.00
17.6621 1199.00
17.7273 1248.00
17.7925 1200.00
17.8577 1184.00
17.9229 1184.00
17.9881 1188.00
18.0533 1168.00
18.1185 1219.00
18.1837 1114.00
18.2489 1158.00
18.3141 1171.00
18.3793 1119.00
18.4445 1153.00
18.5097 1118.00
18.5749 1165.00
18.6401 1147.00
18.7052 1053.00
18.7704 1150.00
18.8356 1111.00
18.9008 1131.00
18.966 1091.00
19.0312 1138.00
19.0964 1067.00
19.1616 1160.00
19.2268 1094.00
19.292 1074.00
19.3572 1076.00
19.4224 1111.00
19.4876 1079.00
19.5528 1140.00
19.618 1109.00
19.6832 1171.00
19.7484 1202.00
19.8136 1326.00
19.8788 1408.00
19.944 1560.00
20.0092 1876.00
20.0744 2341.00
20.1396 3024.00
20.2048 2181.00
20.27 1345.00
20.3352 1204.00
20.4004 1039.00
20.4656 1104.00
20.5308 1062.00
20.596 1060.00
20.6612 1074.00
20.7264 1195.00
20.7916 1096.00
20.8568 1186.00
20.922 1247.00
20.9872 1376.00
21.0524 1716.00
21.1176 2043.00
21.1828 2765.00
21.248 4059.00
21.3132 6063.00
21.3784 6950.00
21.4436 3989.00
21.5088 2075.00
21.574 1611.00
21.6392 1686.00
21.7044 1746.00
21.7696 1496.00
21.8348 1236.00
21.9 1116.00
21.9652 1059.00
22.0304 1036.00
22.0956 1072.00
22.1608 1003.00
22.226 1057.00
22.2912 1027.00
22.3564 1062.00
22.4216 1058.00
22.4868 1127.00
22.552 1244.00
22.6172 1365.00
22.6824 1465.00
22.7476 1482.00
22.8128 1459.00
22.878 1653.00
22.9432 1685.00
23.0084 1767.00
23.0736 2022.00
23.1388 2245.00
23.204 2802.00
23.2692 4346.00
23.3344 7239.00
23.3996 12183.00
23.4647 13996.00
23.5299 8363.00
23.5951 4449.00
23.6603 3653.00
23.7255 4289.00
23.7907 6397.00
23.8559 10183.00
23.9211 13896.00
23.9863 9843.00
24.0515 4594.00
24.1167 2649.00
24.1819 2183.00
24.2471 2153.00
24.3123 2227.00
24.3775 2528.00
24.4427 3115.00
24.5079 4201.00
24.5731 6808.00
24.6383 11618.00
24.7035 14578.00
24.7687 8957.00
24.8339 3524.00
24.8991 2022.00
24.9643 1806.00
25.0295 1970.00
25.0947 2354.00
25.1599 2015.00
25.2251 1354.00
25.2903 1177.00
25.3555 1074.00
25.4207 1013.00
25.4859 1017.00
25.5511 981.00
25.6163 971.00
25.6815 996.00
25.7467 941.00
25.8119 975.00
25.8771 937.00
25.9423 948.00
26.0075 976.00
26.0727 1008.00
26.1379 1035.00
26.2031 1241.00
26.2683 1245.00
26.3335 1251.00
26.3987 1155.00
26.4639 1145.00
26.5291 1177.00
26.5943 1290.00
26.6595 1532.00
26.7247 1903.00
26.7899 2980.00
26.8551 4232.00
26.9203 4537.00
26.9855 3087.00
27.0507 1792.00
27.1159 1260.00
27.1811 1117.00
27.2463 930.00
27.3115 924.00
27.3767 862.00
27.4419 870.00
27.5071 904.00
27.5723 960.00
27.6375 1116.00
27.7027 1470.00
27.7679 1862.00
27.8331 1623.00
27.8983 1115.00
27.9635 886.00
28.0287 841.00
28.0939 797.00
28.1591 772.00
28.2243 781.00
28.2894 771.00
28.3546 789.00
28.4198 801.00
28.485 847.00
28.5502 915.00
28.6154 934.00
28.6806 1027.00
28.7458 1142.00
28.811 1478.00
28.8762 1841.00
28.9414 2603.00
29.0066 3038.00
29.0718 3068.00
29.137 2887.00
29.2022 2601.00
29.2674 2266.00
29.3326 1763.00
29.3978 1319.00
29.463 1057.00
29.5282 901.00
29.5934 857.00
29.6586 836.00
29.7238 836.00
29.789 838.00
29.8542 855.00
29.9194 750.00
29.9846 840.00
30.0498 851.00
30.115 916.00
30.1802 897.00
30.2454 803.00
30.3106 753.00
30.3758 743.00
30.441 705.00
30.5062 761.00
30.5714 745.00
30.6366 839.00
30.7018 931.00
30.767 1437.00
30.8322 2249.00
30.8974 2622.00
30.9626 2015.00
31.0278 1203.00
31.093 864.00
31.1582 760.00
31.2234 721.00
31.2886 696.00
31.3538 618.00
31.419 627.00
31.4842 613.00
31.5494 602.00
31.6146 643.00
31.6798 634.00
31.745 686.00
31.8102 701.00
31.8754 687.00
31.9406 776.00
32.0058 876.00
32.071 1071.00
32.1362 1147.00
32.2014 1046.00
32.2666 857.00
32.3318 787.00
32.397 747.00
32.4622 762.00
32.5274 796.00
32.5926 871.00
32.6578 947.00
32.723 943.00
32.7882 871.00
32.8534 866.00
32.9186 943.00
32.9838 950.00
33.0489 1145.00
33.1141 1431.00
33.1793 1933.00
33.2445 2723.00
33.3097 3423.00
33.3749 3101.00
33.4401 3196.00
33.5053 4660.00
33.5705 6734.00
33.6357 5777.00
33.7009 3930.00
33.7661 2792.00
33.8313 2968.00
33.8965 3446.00
33.9617 3572.00
34.0269 3460.00
34.0921 3293.00
34.1573 3538.00
34.2225 3650.00
34.2877 3775.00
34.3529 4780.00
34.4181 7083.00
34.4833 9298.00
34.5485 7081.00
34.6137 4604.00
34.6789 2522.00
34.7441 1823.00
34.8093 1347.00
34.8745 1003.00
34.9397 925.00
35.0049 812.00
35.0701 766.00
35.1353 643.00
35.2005 690.00
35.2657 681.00
35.3309 649.00
35.3961 693.00
35.4613 756.00
35.5265 790.00
35.5917 896.00
35.6569 1103.00
35.7221 1405.00
35.7873 1587.00
35.8525 1629.00
35.9177 1449.00
35.9829 1299.00
36.0481 1195.00
36.1133 936.00
36.1785 839.00
36.2437 776.00
36.3089 839.00
36.3741 765.00
36.4393 747.00
36.5045 773.00
36.5697 671.00
36.6349 633.00
36.7001 715.00
36.7653 691.00
36.8305 733.00
36.8957 795.00
36.9609 771.00
37.0261 679.00
37.0913 619.00
37.1565 636.00
37.2217 720.00
37.2869 716.00
37.3521 650.00
37.4173 647.00
37.4825 553.00
37.5477 603.00
37.6129 623.00
37.6781 663.00
37.7433 723.00
37.8085 851.00
37.8736 1223.00
37.9388 1556.00
38.004 1198.00
38.0692 876.00
38.1344 684.00
38.1996 562.00
38.2648 586.00
38.33 655.00
38.3952 781.00
38.4604 941.00
38.5256 808.00
38.5908 623.00
38.656 578.00
38.7212 552.00
38.7864 541.00
38.8516 580.00
38.9168 604.00
38.982 584.00
39.0472 646.00
39.1124 593.00
39.1776 601.00
39.2428 579.00
39.308 544.00
39.3732 511.00
39.4384 565.00
39.5036 612.00
39.5688 622.00
39.634 750.00
39.6992 1080.00
39.7644 1184.00
39.8296 1021.00
39.8948 897.00
39.96 716.00
40.0252 631.00
40.0904 622.00
40.1556 608.00
40.2208 583.00
40.286 598.00
40.3512 485.00
40.4164 486.00
40.4816 566.00
40.5468 573.00
40.612 558.00
40.6772 552.00
40.7424 596.00
40.8076 628.00
40.8728 652.00
40.938 742.00
41.0032 859.00
41.0684 1145.00
41.1336 1488.00
41.1988 1367.00
41.264 1062.00
41.3292 809.00
41.3944 758.00
41.4596 722.00
41.5248 857.00
41.59 999.00
41.6552 1276.00
41.7204 1669.00
41.7856 2008.00
41.8508 2308.00
41.916 2347.00
41.9812 2348.00
42.0464 2260.00
42.1116 2171.00
42.1768 2024.00
42.242 1796.00
42.3072 1516.00
42.3724 1168.00
42.4376 1024.00
42.5028 1029.00
42.568 995.00
42.6332 810.00
42.6983 685.00
42.7635 550.00
42.8287 531.00
42.8939 558.00
42.9591 544.00
43.0243 607.00
43.0895 652.00
43.1547 669.00
43.2199 765.00
43.2851 681.00
43.3503 660.00
43.4155 570.00
43.4807 520.00
43.5459 488.00
43.6111 475.00
43.6763 490.00
43.7415 521.00
43.8067 531.00
43.8719 552.00
43.9371 560.00
44.0023 568.00
44.0675 562.00
44.1327 484.00
44.1979 527.00
44.2631 518.00
44.3283 533.00
44.3935 646.00
44.4587 751.00
44.5239 995.00
44.5891 1203.00
44.6543 1011.00
44.7195 926.00
44.7847 771.00
44.8499 771.00
44.9151 927.00
44.9803 1315.00
45.0455 1484.00
45.1107 1492.00
45.1759 1366.00
45.2411 1109.00
45.3063 1030.00
45.3715 884.00
45.4367 807.00
45.5019 1003.00
45.5671 1196.00
45.6323 1392.00
45.6975 1405.00
45.7627 1288.00
45.8279 1183.00
45.8931 1070.00
45.9583 1000.00
46.0235 978.00
46.0887 961.00
46.1539 878.00
46.2191 853.00
46.2843 873.00
46.3495 865.00
46.4147 768.00
46.4799 631.00
46.5451 573.00
46.6103 520.00
46.6755 487.00
46.7407 482.00
46.8059 520.00
46.8711 467.00
46.9363 507.00
47.0015 510.00
47.0667 554.00
47.1319 557.00
47.1971 571.00
47.2623 663.00
47.3275 666.00
47.3927 948.00
47.4579 1492.00
47.523 2249.00
47.5882 2169.00
47.6534 2321.00
47.7186 1918.00
47.7838 1350.00
47.849 1035.00
47.9142 837.00
47.9794 732.00
48.0446 728.00
48.1098 882.00
48.175 795.00
48.2402 730.00
48.3054 687.00
48.3706 806.00
48.4358 1050.00
48.501 1739.00
48.5662 2115.00
48.6314 1832.00
48.6966 1642.00
48.7618 1119.00
48.827 733.00
48.8922 647.00
48.9574 577.00
49.0226 578.00
49.0878 677.00
49.153 827.00
49.2182 777.00
49.2834 756.00
49.3486 662.00
49.4138 549.00
49.479 537.00
49.5442 526.00
49.6094 616.00
49.6746 616.00
49.7398 662.00
49.805 700.00
49.8702 880.00
49.9354 941.00
50.0006 1161.00
50.0658 1598.00
50.131 2639.00
50.1962 4519.00
50.2614 4491.00
50.3266 3496.00
50.3918 2905.00
50.457 1876.00
50.5222 1828.00
50.5874 2192.00
50.6526 2509.00
50.7178 2282.00
50.783 2321.00
50.8482 2062.00
50.9134 2085.00
50.9786 2112.00
51.0438 1961.00
51.109 1667.00
51.1742 1295.00
51.2394 1016.00
51.3046 828.00
51.3698 705.00
51.435 720.00
51.5002 661.00
51.5654 781.00
51.6306 1099.00
51.6958 1012.00
51.761 871.00
51.8262 786.00
51.8914 628.00
51.9566 558.00
52.0218 583.00
52.087 589.00
52.1522 533.00
52.2174 567.00
52.2826 533.00
52.3477 510.00
52.4129 559.00
52.4781 584.00
52.5433 703.00
52.6085 900.00
52.6737 778.00
52.7389 846.00
52.8041 783.00
52.8693 727.00
52.9345 634.00
52.9997 683.00
53.0649 588.00
53.1301 683.00
53.1953 790.00
53.2605 963.00
53.3257 920.00
53.3909 852.00
53.4561 842.00
53.5213 872.00
53.5865 974.00
53.6517 1358.00
53.7169 1963.00
53.7821 2076.00
53.8473 1789.00
53.9125 1603.00
53.9777 1333.00
54.0429 1107.00
54.1081 1102.00
54.1733 1265.00
54.2385 1390.00
54.3037 1665.00
54.3689 1892.00
54.4341 2484.00
54.4993 2175.00
54.5645 1956.00
54.6297 1642.00
54.6949 1164.00
54.7601 1111.00
54.8253 1136.00
54.8905 1219.00
54.9557 1476.00
55.0209 2159.00
55.0861 2327.00
55.1513 1818.00
55.2165 1817.00
55.2817 1392.00
55.3469 1236.00
55.4121 1194.00
55.4773 1276.00
55.5425 1394.00
55.6077 1512.00
55.6729 1519.00
55.7381 1634.00
55.8033 1789.00
55.8685 2238.00
55.9337 2667.00
55.9989 3059.00
56.0641 3231.00
56.1293 3546.00
56.1945 4290.00
56.2597 3383.00
56.3249 2778.00
56.3901 2423.00
56.4553 1724.00
56.5205 1270.00
56.5857 1101.00
56.6509 867.00
56.7161 735.00
56.7813 697.00
56.8465 619.00
56.9117 629.00
56.9769 595.00
57.042 581.00
57.1073 505.00
57.1724 509.00
57.2376 452.00
57.3028 470.00
57.368 466.00
57.4332 459.00
57.4984 443.00
57.5636 478.00
57.6288 544.00
57.694 530.00
57.7592 657.00
57.8244 851.00
57.8896 779.00
57.9548 794.00
58.02 869.00
58.0852 746.00
58.1504 698.00
58.2156 686.00
58.2808 610.00
58.346 608.00
58.4112 586.00
58.4764 541.00
58.5416 547.00
58.6068 517.00
58.672 560.00
58.7372 503.00
58.8024 481.00
58.8676 515.00
58.9328 547.00
58.998 576.00
59.0632 576.00
59.1284 663.00
59.1936 709.00
59.2588 714.00
59.324 718.00
59.3892 764.00
59.4544 811.00
59.5196 925.00
59.5848 997.00
59.65 891.00
59.7152 963.00
59.7804 821.00
59.8456 840.00
59.9108 778.00
59.976 801.00
60.0412 936.00
60.1064 1002.00
60.1716 1180.00
60.2368 1133.00
60.302 1237.00
60.3672 1314.00
60.4324 1387.00
60.4976 1462.00
60.5628 1378.00
60.628 1295.00
60.6932 1266.00
60.7584 1132.00
60.8236 1124.00
60.8888 1012.00
60.954 964.00
61.0192 853.00
61.0844 914.00
61.1496 908.00
61.2148 1027.00
61.28 1107.00
61.3452 1146.00
61.4104 1263.00
61.4756 1309.00
61.5408 1470.00
61.606 1446.00
61.6712 1455.00
61.7364 1368.00
61.8016 1320.00
61.8667 1401.00
61.932 1333.00
61.9971 1367.00
62.0623 1412.00
62.1275 1508.00
62.1927 1504.00
62.2579 1414.00
62.3231 1470.00
62.3883 1641.00
62.4535 1916.00
62.5187 2233.00
62.5839 2173.00
62.6491 1830.00
62.7143 1689.00
62.7795 1306.00
62.8447 1007.00
62.9099 884.00
62.9751 802.00
63.0403 844.00
63.1055 739.00
63.1707 746.00
63.2359 760.00
63.3011 811.00
63.3663 823.00
63.4315 916.00
63.4967 993.00
63.5619 1051.00
63.6271 1140.00
63.6923 1333.00
63.7575 1326.00
63.8227 1063.00
63.8879 978.00
63.9531 838.00
64.0183 653.00
64.0835 548.00
64.1487 532.00
64.2139 466.00
64.2791 456.00
64.3443 442.00
64.4095 442.00
64.4747 461.00
64.5399 506.00
64.6051 436.00
64.6703 402.00
64.7355 488.00
64.8007 450.00
64.8659 435.00
64.9311 463.00
64.9963 479.00
65.0615 470.00
65.1267 542.00
65.1919 536.00
65.2571 493.00
65.3223 431.00
65.3875 463.00
65.4527 514.00
65.5179 483.00
65.5831 486.00
65.6483 439.00
65.7135 492.00
65.7787 435.00
65.8439 463.00
65.9091 436.00
65.9743 469.00
66.0395 465.00
66.1047 416.00
66.1699 477.00
66.2351 525.00
66.3003 474.00
66.3655 573.00
66.4307 645.00
66.4959 627.00
66.561 760.00
66.6263 832.00
66.6915 837.00
66.7566 865.00
66.8218 936.00
66.887 837.00
66.9522 868.00
67.0174 922.00
67.0826 804.00
67.1478 760.00
67.213 755.00
67.2782 727.00
67.3434 834.00
67.4086 860.00
67.4738 840.00
67.539 920.00
67.6042 930.00
67.6694 876.00
67.7346 851.00
67.7998 821.00
67.865 880.00
67.9302 845.00
67.9954 837.00
68.0606 826.00
68.1258 921.00
68.191 1049.00
68.2562 876.00
68.3214 758.00
68.3866 726.00
68.4518 582.00
68.517 541.00
68.5822 481.00
68.6474 517.00
68.7126 522.00
68.7778 539.00
68.843 537.00
68.9082 518.00
68.9734 496.00
69.0386 556.00
69.1038 505.00
69.169 517.00
69.2342 543.00
69.2994 454.00
69.3646 506.00
69.4298 494.00
69.495 474.00
69.5602 452.00
69.6254 474.00
69.6906 446.00
69.7558 503.00
69.821 568.00
69.8862 576.00
69.9514 620.00
70.0166 733.00
70.0818 886.00
70.147 732.00
70.2122 718.00
70.2774 756.00
70.3426 642.00
70.4078 581.00
70.473 558.00
70.5382 522.00
70.6034 538.00
70.6686 592.00
70.7338 607.00
70.799 628.00
70.8642 685.00
70.9294 592.00
70.9946 592.00
71.0598 645.00
71.125 672.00
71.1902 702.00
71.2554 769.00
71.3205 808.00
71.3858 753.00
71.451 752.00
71.5162 758.00
71.5813 730.00
71.6465 705.00
71.7117 662.00
71.7769 738.00
71.8421 830.00
71.9073 791.00
71.9725 815.00
72.0377 874.00
72.1029 978.00
72.1681 1179.00
72.2333 1230.00
72.2985 1048.00
72.3637 1026.00
72.4289 997.00
72.4941 696.00
72.5593 622.00
72.6245 619.00
72.6897 673.00
72.7549 617.00
72.8201 635.00
72.8853 669.00
72.9505 671.00
73.0157 600.00
73.0809 587.00
73.1461 522.00
73.2113 592.00
73.2765 561.00
73.3417 553.00
73.4069 553.00
73.4721 565.00
73.5373 595.00
73.6025 597.00
73.6677 632.00
73.7329 644.00
73.7981 648.00
73.8633 713.00
73.9285 692.00
73.9937 698.00
74.0589 731.00
74.1241 712.00
74.1893 605.00
74.2545 585.00
74.3197 587.00
74.3849 566.00
74.4501 480.00
74.5153 474.00
74.5805 517.00
74.6457 465.00
74.7109 463.00
74.7761 449.00
74.8413 477.00
74.9065 476.00
74.9717 491.00
75.0369 524.00
75.1021 633.00
75.1673 642.00
75.2325 621.00
75.2977 625.00
75.3629 662.00
75.4281 630.00
75.4933 603.00
75.5585 656.00
75.6237 709.00
75.6889 802.00
75.7541 856.00
75.8193 850.00
75.8845 874.00
75.9497 798.00
76.0149 810.00
76.0801 810.00
76.1452 792.00
76.2104 820.00
76.2756 849.00
76.3409 980.00
76.406 1126.00
76.4712 1368.00
76.5364 1231.00
76.6016 1240.00
76.6668 1333.00
76.732 1342.00
76.7972 1315.00
76.8624 1399.00
76.9276 1518.00
76.9928 1412.00
77.058 1433.00
77.1232 1593.00
77.1884 1591.00
77.2536 1350.00
77.3188 1160.00
77.384 1040.00
77.4492 942.00
77.5144 706.00
77.5796 690.00
77.6448 573.00
77.71 506.00
77.7752 448.00
77.8404 468.00
77.9056 469.00
77.9708 532.00
78.036 544.00
78.1012 509.00
78.1664 491.00
78.2316 478.00
78.2968 433.00
78.362 458.00
78.4272 473.00
78.4924 462.00
78.5576 470.00
78.6228 489.00
78.688 548.00
78.7532 688.00
78.8184 787.00
78.8836 725.00
78.9488 672.00
79.014 709.00
79.0792 610.00
79.1444 561.00
79.2096 472.00
79.2748 482.00
79.34 469.00
79.4052 466.00
79.4704 409.00
79.5356 424.00
79.6008 391.00
79.666 401.00
79.7312 439.00
79.7964 458.00
79.8616 483.00
79.9268 456.00
79.992 455.00
80.0572 448.00
80.1224 485.00
80.1876 511.00
80.2528 472.00
80.318 549.00
80.3832 598.00
80.4484 597.00
80.5136 652.00
80.5788 566.00
80.644 548.00
80.7092 507.00
80.7744 586.00
80.8396 507.00
80.9048 521.00
80.9699 542.00
81.0351 612.00
81.1003 679.00
81.1655 713.00
81.2307 696.00
81.2959 747.00
81.3611 699.00
81.4263 713.00
81.4915 759.00
81.5567 764.00
81.6219 741.00
81.6871 809.00
81.7523 963.00
81.8175 1144.00
81.8827 1072.00
81.9479 983.00
82.0131 960.00
82.0783 942.00
82.1435 783.00
82.2087 739.00
82.2739 706.00
82.3391 695.00
82.4043 677.00
82.4695 605.00
82.5347 681.00
82.5999 626.00
82.6651 637.00
82.7303 588.00
82.7955 635.00
82.8607 607.00
82.9259 642.00
82.9911 644.00
83.0563 647.00
83.1215 675.00
83.1867 721.00
83.2519 671.00
83.3171 704.00
83.3823 712.00
83.4475 730.00
83.5127 839.00
83.5779 962.00
83.6431 1094.00
83.7083 1008.00
83.7735 893.00
83.8387 979.00
83.9039 1092.00
83.9691 987.00
84.0343 806.00
84.0995 726.00
84.1647 703.00
84.2299 673.00
84.2951 616.00
84.3603 630.00
84.4255 588.00
84.4907 579.00
84.5559 598.00
84.6211 617.00
84.6863 632.00
84.7515 664.00
84.8167 643.00
84.8819 601.00
84.9471 663.00
85.0123 676.00
85.0775 676.00
85.1427 643.00
85.2079 618.00
85.2731 701.00
85.3383 656.00
85.4035 647.00
85.4687 542.00
85.5339 506.00
85.5991 570.00
85.6643 538.00
85.7295 527.00
85.7946 592.00
85.8598 547.00
85.925 632.00
85.9903 760.00
86.0554 816.00
86.1206 884.00
86.1858 898.00
86.251 920.00
86.3162 1085.00
86.3814 1031.00
86.4466 1030.00
86.5118 1065.00
86.577 1097.00
86.6422 995.00
86.7074 958.00
86.7726 740.00
86.8378 851.00
86.903 707.00
86.9682 694.00
87.0334 696.00
87.0986 686.00
87.1638 648.00
87.229 742.00
87.2942 711.00
87.3594 813.00
87.4246 947.00
87.4898 1071.00
87.555 949.00
87.6202 1005.00
87.6854 975.00
87.7506 1041.00
87.8158 902.00
87.881 880.00
87.9462 856.00
88.0114 730.00
88.0766 763.00
88.1418 762.00
88.207 750.00
88.2722 754.00
88.3374 750.00
88.4026 742.00
88.4678 727.00
88.533 783.00
88.5982 695.00
88.6634 750.00
88.7286 768.00
88.7938 644.00
88.859 648.00
88.9242 637.00
88.9894 562.00
89.0546 535.00
89.1198 535.00
89.185 495.00
89.2502 516.00
89.3154 469.00
89.3806 433.00
89.4458 430.00
89.511 501.00
89.5762 434.00
89.6414 479.00
89.7066 544.00
89.7718 548.00
89.837 496.00
89.9022 459.00
89.9674 498.00
90.0326 477.00
90.0978 502.00
90.163 512.00
90.2282 505.00
90.2934 485.00
90.3586 543.00
90.4238 479.00
90.489 522.00
90.5542 554.00
90.6193 514.00
90.6845 521.00
90.7497 491.00
90.8149 526.00
90.8801 532.00
90.9453 519.00
91.0105 505.00
91.0757 521.00
91.1409 514.00
91.2061 507.00
91.2713 479.00
91.3365 497.00
91.4017 498.00
91.4669 513.00
91.5321 520.00
91.5973 528.00
91.6625 537.00
91.7277 503.00
91.7929 589.00
91.8581 660.00
91.9233 658.00
91.9885 675.00
92.0537 700.00
92.1189 693.00
92.1841 741.00
92.2493 727.00
92.3145 755.00
92.3797 727.00
92.4449 700.00
92.5101 649.00
92.5753 619.00
92.6405 580.00
92.7057 550.00
92.7709 512.00
92.8361 500.00
92.9013 470.00
92.9665 425.00
93.0317 477.00
93.0969 472.00
93.1621 455.00
93.2273 477.00
93.2925 504.00
93.3577 484.00
93.4229 509.00
93.4881 479.00
93.5533 442.00
93.6185 501.00
93.6837 487.00
93.7489 534.00
93.8141 467.00
93.8793 531.00
93.9445 529.00
94.0097 503.00
94.0749 508.00
94.1401 449.00
94.2053 547.00
94.2705 519.00
94.3357 445.00
94.4009 485.00
94.4661 456.00
94.5313 496.00
94.5965 461.00
94.6617 524.00
94.7269 555.00
94.7921 495.00
94.8573 506.00
94.9225 462.00
94.9877 479.00
95.0529 512.00
95.1181 470.00
95.1833 453.00
95.2485 417.00
95.3137 443.00
95.3789 506.00
95.444 525.00
95.5092 538.00
95.5744 577.00
95.6396 578.00
95.7048 600.00
95.77 676.00
95.8352 643.00
95.9004 683.00
95.9656 597.00
96.0308 659.00
96.096 637.00
96.1612 675.00
96.2264 703.00
96.2916 762.00
96.3568 675.00
96.422 641.00
96.4872 573.00
96.5524 618.00
96.6176 646.00
96.6828 599.00
96.748 562.00
96.8132 549.00
96.8784 472.00
96.9436 532.00
97.0088 552.00
97.074 507.00
97.1392 538.00
97.2044 530.00
97.2696 543.00
97.3348 527.00
97.4 498.00
97.4652 485.00
97.5304 518.00
97.5956 488.00
97.6608 450.00
97.726 492.00
97.7912 464.00
97.8564 534.00
97.9216 596.00
97.9868 611.00
98.052 553.00
98.1172 472.00
98.1824 509.00
98.2476 506.00
98.3128 554.00
98.378 454.00
98.4432 448.00
98.5084 448.00
98.5736 402.00
98.6388 414.00
98.704 428.00
98.7692 421.00
98.8344 385.00
98.8996 404.00
98.9648 416.00
99.03 382.00
99.0952 398.00
99.1604 427.00
99.2256 411.00
99.2908 431.00
99.356 428.00
99.4212 421.00
99.4864 459.00
99.5516 402.00
99.6168 404.00
99.682 389.00
99.7472 402.00
99.8124 390.00
99.8776 385.00
99.9428 341.00
100.008 352.00
100.073 408.00
100.095 414.00