File: data/xrd_creation/results/PG_2245-1.xy
9.903433 3058.00
9.968632 2989.00
10.0338 2961.00
10.099 2940.00
10.1642 2962.00
10.2294 2930.00
10.2946 3012.00
10.3598 2967.00
10.425 2904.00
10.4902 2905.00
10.5554 2840.00
10.6206 2836.00
10.6858 2765.00
10.751 2870.00
10.8162 2804.00
10.8814 2768.00
10.9466 2786.00
11.0118 2754.00
11.077 2763.00
11.1422 2657.00
11.2074 2740.00
11.2726 2706.00
11.3378 2779.00
11.403 2721.00
11.4682 2689.00
11.5334 2603.00
11.5986 2624.00
11.6638 2579.00
11.729 2589.00
11.7942 2584.00
11.8594 2573.00
11.9246 2587.00
11.9898 2544.00
12.055 2487.00
12.1202 2468.00
12.1854 2597.00
12.2506 2580.00
12.3158 2530.00
12.381 2530.00
12.4462 2494.00
12.5114 2568.00
12.5766 2533.00
12.6418 2408.00
12.707 2455.00
12.7722 2502.00
12.8374 2516.00
12.9026 2509.00
12.9678 2651.00
13.033 2648.00
13.0982 2449.00
13.1634 2481.00
13.2286 2530.00
13.2938 2601.00
13.359 2417.00
13.4242 2492.00
13.4894 2548.00
13.5546 2461.00
13.6198 2545.00
13.685 2536.00
13.7502 2590.00
13.8154 2452.00
13.8805 2431.00
13.9457 2463.00
14.0109 2437.00
14.0761 2335.00
14.1413 2475.00
14.2065 2382.00
14.2717 2407.00
14.3369 2425.00
14.4021 2418.00
14.4673 2498.00
14.5325 2319.00
14.5977 2360.00
14.6629 2485.00
14.7281 2350.00
14.7933 2384.00
14.8585 2428.00
14.9237 2384.00
14.9889 2304.00
15.0541 2444.00
15.1193 2405.00
15.1845 2309.00
15.2497 2301.00
15.3149 2419.00
15.3801 2412.00
15.4453 2359.00
15.5105 2284.00
15.5757 2321.00
15.6409 2336.00
15.7061 2391.00
15.7713 2405.00
15.8365 2429.00
15.9017 2383.00
15.9669 2377.00
16.0321 2434.00
16.0973 2321.00
16.1625 2413.00
16.2277 2310.00
16.2929 2326.00
16.3581 2456.00
16.4233 2281.00
16.4885 2279.00
16.5537 2218.00
16.6189 2379.00
16.6841 2260.00
16.7493 2215.00
16.8145 2325.00
16.8797 2428.00
16.9449 2297.00
17.0101 2342.00
17.0753 2312.00
17.1405 2322.00
17.2057 2222.00
17.2709 2261.00
17.3361 2340.00
17.4013 2227.00
17.4665 2258.00
17.5317 2219.00
17.5969 2297.00
17.6621 2247.00
17.7273 2343.00
17.7925 2174.00
17.8577 2249.00
17.9229 2281.00
17.9881 2219.00
18.0533 2171.00
18.1185 2306.00
18.1837 2326.00
18.2489 2350.00
18.3141 2321.00
18.3793 2338.00
18.4445 2278.00
18.5097 2275.00
18.5749 2292.00
18.6401 2168.00
18.7052 2207.00
18.7704 2341.00
18.8356 2168.00
18.9008 2228.00
18.966 2320.00
19.0312 2313.00
19.0964 2161.00
19.1616 2255.00
19.2268 2351.00
19.292 2207.00
19.3572 2242.00
19.4224 2216.00
19.4876 2264.00
19.5528 2134.00
19.618 2198.00
19.6832 2192.00
19.7484 2117.00
19.8136 2195.00
19.8788 2076.00
19.944 2137.00
20.0092 2187.00
20.0744 2128.00
20.1396 2174.00
20.2048 2115.00
20.27 2202.00
20.3352 2330.00
20.4004 2248.00
20.4656 2454.00
20.5308 2787.00
20.596 2989.00
20.6612 3281.00
20.7264 3020.00
20.7916 2635.00
20.8568 2377.00
20.922 2350.00
20.9872 2352.00
21.0524 2323.00
21.1176 2344.00
21.1828 2287.00
21.248 2461.00
21.3132 2533.00
21.3784 2725.00
21.4436 2787.00
21.5088 2769.00
21.574 3093.00
21.6392 3616.00
21.7044 3614.00
21.7696 2499.00
21.8348 2216.00
21.9 2233.00
21.9652 2111.00
22.0304 2172.00
22.0956 2159.00
22.1608 2137.00
22.226 2195.00
22.2912 2156.00
22.3564 2150.00
22.4216 2180.00
22.4868 2115.00
22.552 2073.00
22.6172 2087.00
22.6824 2199.00
22.7476 2154.00
22.8128 2137.00
22.878 2174.00
22.9432 2134.00
23.0084 2221.00
23.0736 2122.00
23.1388 2159.00
23.204 2073.00
23.2692 2112.00
23.3344 2086.00
23.3996 1980.00
23.4647 2152.00
23.5299 2146.00
23.5951 2216.00
23.6603 2323.00
23.7255 2317.00
23.7907 2430.00
23.8559 2173.00
23.9211 2157.00
23.9863 2130.00
24.0515 2085.00
24.1167 2102.00
24.1819 2134.00
24.2471 2051.00
24.3123 2132.00
24.3775 2195.00
24.4427 2117.00
24.5079 2151.00
24.5731 2149.00
24.6383 2276.00
24.7035 2332.00
24.7687 2379.00
24.8339 2381.00
24.8991 2591.00
24.9643 2824.00
25.0295 2997.00
25.0947 3245.00
25.1599 4021.00
25.2251 5413.00
25.2903 8401.00
25.3555 13927.00
25.4207 23594.00
25.4859 32644.00
25.5511 29297.00
25.6163 17292.00
25.6815 9923.00
25.7467 8027.00
25.8119 7449.00
25.8771 8091.00
25.9423 9761.00
26.0075 12155.00
26.0727 14499.00
26.1379 14403.00
26.2031 10185.00
26.2683 6037.00
26.3335 4167.00
26.3987 3287.00
26.4639 2762.00
26.5291 2569.00
26.5943 2486.00
26.6595 2377.00
26.7247 2272.00
26.7899 2267.00
26.8551 2269.00
26.9203 2239.00
26.9855 2208.00
27.0507 2136.00
27.1159 2069.00
27.1811 2144.00
27.2463 2073.00
27.3115 2036.00
27.3767 2079.00
27.4419 2089.00
27.5071 2108.00
27.5723 2018.00
27.6375 2103.00
27.7027 1940.00
27.7679 2029.00
27.8331 2016.00
27.8983 2001.00
27.9635 1944.00
28.0287 2010.00
28.0939 2083.00
28.1591 1941.00
28.2243 2013.00
28.2894 1954.00
28.3546 1958.00
28.4198 2033.00
28.485 2054.00
28.5502 1930.00
28.6154 1968.00
28.6806 1904.00
28.7458 2012.00
28.811 1988.00
28.8762 1963.00
28.9414 1918.00
29.0066 1940.00
29.0718 1872.00
29.137 1918.00
29.2022 1911.00
29.2674 1950.00
29.3326 1962.00
29.3978 2093.00
29.463 1971.00
29.5282 1990.00
29.5934 2173.00
29.6586 2332.00
29.7238 2739.00
29.789 3291.00
29.8542 4518.00
29.9194 5944.00
29.9846 5753.00
30.0498 3746.00
30.115 2433.00
30.1802 2099.00
30.2454 2077.00
30.3106 1971.00
30.3758 1902.00
30.441 1964.00
30.5062 1979.00
30.5714 2067.00
30.6366 2003.00
30.7018 2067.00
30.767 2361.00
30.8322 2729.00
30.8974 3406.00
30.9626 3290.00
31.0278 2683.00
31.093 2210.00
31.1582 2131.00
31.2234 2112.00
31.2886 2111.00
31.3538 2147.00
31.419 2233.00
31.4842 2410.00
31.5494 2603.00
31.6146 3050.00
31.6798 3404.00
31.745 4241.00
31.8102 4905.00
31.8754 4728.00
31.9406 4242.00
32.0058 3946.00
32.071 4357.00
32.1362 4307.00
32.2014 3379.00
32.2666 2546.00
32.3318 2214.00
32.397 1973.00
32.4622 1860.00
32.5274 1881.00
32.5926 1928.00
32.6578 1919.00
32.723 1786.00
32.7882 1930.00
32.8534 1929.00
32.9186 1931.00
32.9838 1941.00
33.0489 1844.00
33.1141 1817.00
33.1793 1900.00
33.2445 1845.00
33.3097 1785.00
33.3749 1827.00
33.4401 1748.00
33.5053 1883.00
33.5705 1873.00
33.6357 1830.00
33.7009 1801.00
33.7661 1860.00
33.8313 1863.00
33.8965 1731.00
33.9617 1959.00
34.0269 1845.00
34.0921 1812.00
34.1573 1964.00
34.2225 2003.00
34.2877 2094.00
34.3529 2305.00
34.4181 2597.00
34.4833 2550.00
34.5485 2411.00
34.6137 2316.00
34.6789 2534.00
34.7441 2866.00
34.8093 3160.00
34.8745 3254.00
34.9397 3074.00
35.0049 2712.00
35.0701 2565.00
35.1353 2438.00
35.2005 2778.00
35.2657 3143.00
35.3309 3800.00
35.3961 4844.00
35.4613 5288.00
35.5265 5243.00
35.5917 4644.00
35.6569 4130.00
35.7221 3572.00
35.7873 3111.00
35.8525 2910.00
35.9177 2813.00
35.9829 2754.00
36.0481 2687.00
36.1133 2694.00
36.1785 2962.00
36.2437 3355.00
36.3089 4090.00
36.3741 5981.00
36.4393 8526.00
36.5045 11290.00
36.5697 10340.00
36.6349 9003.00
36.7001 8641.00
36.7653 9908.00
36.8305 11336.00
36.8957 10558.00
36.9609 8923.00
37.0261 6382.00
37.0913 4439.00
37.1565 3618.00
37.2217 3329.00
37.2869 3088.00
37.3521 2691.00
37.4173 2324.00
37.4825 1922.00
37.5477 1944.00
37.6129 1870.00
37.6781 1914.00
37.7433 1895.00
37.8085 1826.00
37.8736 1826.00
37.9388 1812.00
38.004 1872.00
38.0692 1804.00
38.1344 1758.00
38.1996 1787.00
38.2648 1831.00
38.33 1832.00
38.3952 1787.00
38.4604 1795.00
38.5256 1766.00
38.5908 1655.00
38.656 1705.00
38.7212 1715.00
38.7864 1780.00
38.8516 1753.00
38.9168 1856.00
38.982 1695.00
39.0472 1747.00
39.1124 1823.00
39.1776 1749.00
39.2428 1802.00
39.308 1759.00
39.3732 1709.00
39.4384 1813.00
39.5036 1832.00
39.5688 1827.00
39.634 1812.00
39.6992 1895.00
39.7644 2014.00
39.8296 2223.00
39.8948 2380.00
39.96 2305.00
40.0252 2350.00
40.0904 2261.00
40.1556 2276.00
40.2208 2224.00
40.286 2052.00
40.3512 1941.00
40.4164 1872.00
40.4816 1837.00
40.5468 1662.00
40.612 1766.00
40.6772 1764.00
40.7424 1737.00
40.8076 1703.00
40.8728 1785.00
40.938 1724.00
41.0032 1731.00
41.0684 1766.00
41.1336 1873.00
41.1988 1808.00
41.264 1883.00
41.3292 1927.00
41.3944 2200.00
41.4596 2447.00
41.5248 3115.00
41.59 4029.00
41.6552 4707.00
41.7204 4066.00
41.7856 3357.00
41.8508 2623.00
41.916 2195.00
41.9812 2036.00
42.0464 1931.00
42.1116 1911.00
42.1768 1786.00
42.242 1783.00
42.3072 1829.00
42.3724 1747.00
42.4376 1829.00
42.5028 1893.00
42.568 1732.00
42.6332 1825.00
42.6983 1792.00
42.7635 1810.00
42.8287 1900.00
42.8939 1985.00
42.9591 2011.00
43.0243 2155.00
43.0895 2301.00
43.1547 2402.00
43.2199 2537.00
43.2851 2449.00
43.3503 2266.00
43.4155 2128.00
43.4807 2050.00
43.5459 1978.00
43.6111 1877.00
43.6763 2006.00
43.7415 2032.00
43.8067 2167.00
43.8719 2149.00
43.9371 2204.00
44.0023 2450.00
44.0675 2645.00
44.1327 3092.00
44.1979 4197.00
44.2631 6206.00
44.3283 9926.00
44.3935 12770.00
44.4587 12263.00
44.5239 9629.00
44.5891 6562.00
44.6543 4419.00
44.7195 3379.00
44.7847 2896.00
44.8499 2653.00
44.9151 2372.00
44.9803 2317.00
45.0455 2219.00
45.1107 2257.00
45.1759 2162.00
45.2411 2209.00
45.3063 2258.00
45.3715 2237.00
45.4367 2442.00
45.5019 2439.00
45.5671 2604.00
45.6323 2857.00
45.6975 3218.00
45.7627 3920.00
45.8279 4911.00
45.8931 5471.00
45.9583 5421.00
46.0235 4933.00
46.0887 3893.00
46.1539 3216.00
46.2191 2620.00
46.2843 2363.00
46.3495 2256.00
46.4147 2041.00
46.4799 2131.00
46.5451 2139.00
46.6103 2313.00
46.6755 2584.00
46.7407 3015.00
46.8059 3794.00
46.8711 4472.00
46.9363 4761.00
47.0015 4468.00
47.0667 3855.00
47.1319 3304.00
47.1971 2876.00
47.2623 2787.00
47.3275 2548.00
47.3927 2537.00
47.4579 2474.00
47.523 2573.00
47.5882 2664.00
47.6534 2820.00
47.7186 3195.00
47.7838 3864.00
47.849 4883.00
47.9142 6506.00
47.9794 7962.00
48.0446 7533.00
48.1098 5968.00
48.175 4672.00
48.2402 3336.00
48.3054 2738.00
48.3706 2346.00
48.4358 2073.00
48.501 1936.00
48.5662 1971.00
48.6314 1776.00
48.6966 1826.00
48.7618 1922.00
48.827 1828.00
48.8922 1883.00
48.9574 1941.00
49.0226 2022.00
49.0878 2035.00
49.153 1998.00
49.2182 1869.00
49.2834 1864.00
49.3486 1992.00
49.4138 1873.00
49.479 1857.00
49.5442 1891.00
49.6094 1926.00
49.6746 1929.00
49.7398 1819.00
49.805 1840.00
49.8702 1968.00
49.9354 2163.00
50.0006 2569.00
50.0658 3215.00
50.131 4766.00
50.1962 6718.00
50.2614 7636.00
50.3266 6872.00
50.3918 5958.00
50.457 5066.00
50.5222 4779.00
50.5874 4768.00
50.6526 4117.00
50.7178 3496.00
50.783 2899.00
50.8482 2401.00
50.9134 2292.00
50.9786 2150.00
51.0438 1972.00
51.109 1931.00
51.1742 1813.00
51.2394 1763.00
51.3046 1696.00
51.3698 1717.00
51.435 1751.00
51.5002 1682.00
51.5654 1721.00
51.6306 1681.00
51.6958 1764.00
51.761 1827.00
51.8262 2017.00
51.8914 2231.00
51.9566 2372.00
52.0218 2451.00
52.087 2358.00
52.1522 2102.00
52.2174 1950.00
52.2826 1787.00
52.3477 1725.00
52.4129 1751.00
52.4781 1645.00
52.5433 1650.00
52.6085 1605.00
52.6737 1641.00
52.7389 1724.00
52.8041 1626.00
52.8693 1528.00
52.9345 1754.00
52.9997 1689.00
53.0649 1791.00
53.1301 1810.00
53.1953 1872.00
53.2605 1918.00
53.3257 2037.00
53.3909 2042.00
53.4561 1889.00
53.5213 1909.00
53.5865 1704.00
53.6517 1629.00
53.7169 1681.00
53.7821 1608.00
53.8473 1640.00
53.9125 1614.00
53.9777 1708.00
54.0429 1653.00
54.1081 1658.00
54.1733 1576.00
54.2385 1555.00
54.3037 1607.00
54.3689 1605.00
54.4341 1602.00
54.4993 1527.00
54.5645 1520.00
54.6297 1590.00
54.6949 1621.00
54.7601 1503.00
54.8253 1614.00
54.8905 1561.00
54.9557 1509.00
55.0209 1692.00
55.0861 1708.00
55.1513 1765.00
55.2165 1829.00
55.2817 1922.00
55.3469 1878.00
55.4121 1916.00
55.4773 1810.00
55.5425 1768.00
55.6077 1682.00
55.6729 1678.00
55.7381 1586.00
55.8033 1650.00
55.8685 1589.00
55.9337 1618.00
55.9989 1614.00
56.0641 1579.00
56.1293 1591.00
56.1945 1602.00
56.2597 1641.00
56.3249 1640.00
56.3901 1744.00
56.4553 1642.00
56.5205 1667.00
56.5857 1658.00
56.6509 1721.00
56.7161 1688.00
56.7813 1732.00
56.8465 1995.00
56.9117 2094.00
56.9769 2050.00
57.042 2242.00
57.1073 2145.00
57.1724 2214.00
57.2376 1956.00
57.3028 2134.00
57.368 2202.00
57.4332 2404.00
57.4984 2882.00
57.5636 3007.00
57.6288 2981.00
57.694 2904.00
57.7592 2697.00
57.8244 2666.00
57.8896 2357.00
57.9548 2283.00
58.02 2193.00
58.0852 2090.00
58.1504 1945.00
58.2156 1914.00
58.2808 1887.00
58.346 1813.00
58.4112 1855.00
58.4764 1861.00
58.5416 1814.00
58.6068 1848.00
58.672 1872.00
58.7372 1928.00
58.8024 2007.00
58.8676 2143.00
58.9328 2333.00
58.998 2657.00
59.0632 2868.00
59.1284 3155.00
59.1936 3231.00
59.2588 2965.00
59.324 2691.00
59.3892 2497.00
59.4544 2096.00
59.5196 2003.00
59.5848 1913.00
59.65 2017.00
59.7152 2014.00
59.7804 2015.00
59.8456 2228.00
59.9108 2475.00
59.976 2738.00
60.0412 3036.00
60.1064 3069.00
60.1716 2902.00
60.2368 2611.00
60.302 2278.00
60.3672 2065.00
60.4324 1873.00
60.4976 1783.00
60.5628 1753.00
60.628 1650.00
60.6932 1639.00
60.7584 1718.00
60.8236 1644.00
60.8888 1682.00
60.954 1612.00
61.0192 1688.00
61.0844 1681.00
61.1496 1682.00
61.2148 1619.00
61.28 1674.00
61.3452 1661.00
61.4104 1668.00
61.4756 1651.00
61.5408 1690.00
61.606 1627.00
61.6712 1739.00
61.7364 1964.00
61.8016 1934.00
61.8667 1792.00
61.932 1770.00
61.9971 1780.00
62.0623 1617.00
62.1275 1654.00
62.1927 1545.00
62.2579 1498.00
62.3231 1576.00
62.3883 1556.00
62.4535 1478.00
62.5187 1587.00
62.5839 1540.00
62.6491 1624.00
62.7143 1612.00
62.7795 1750.00
62.8447 1946.00
62.9099 2000.00
62.9751 1995.00
63.0403 2079.00
63.1055 2262.00
63.1707 2017.00
63.2359 1972.00
63.3011 1922.00
63.3663 1835.00
63.4315 1701.00
63.4967 1738.00
63.5619 1696.00
63.6271 1723.00
63.6923 1729.00
63.7575 1829.00
63.8227 1900.00
63.8879 2094.00
63.9531 2087.00
64.0183 2303.00
64.0835 2467.00
64.1487 2823.00
64.2139 2919.00
64.2791 2761.00
64.3443 2579.00
64.4095 2381.00
64.4747 2248.00
64.5399 2063.00
64.6051 1772.00
64.6703 1738.00
64.7355 1714.00
64.8007 1688.00
64.8659 1569.00
64.9311 1591.00
64.9963 1622.00
65.0615 1670.00
65.1267 1713.00
65.1919 1695.00
65.2571 1724.00
65.3223 1873.00
65.3875 1961.00
65.4527 2157.00
65.5179 2165.00
65.5831 2252.00
65.6483 2480.00
65.7135 2678.00
65.7787 2806.00
65.8439 2505.00
65.9091 2588.00
65.9743 2462.00
66.0395 2337.00
66.1047 2078.00
66.1699 2137.00
66.2351 2112.00
66.3003 2140.00
66.3655 2074.00
66.4307 2051.00
66.4959 1998.00
66.561 1998.00
66.6263 1995.00
66.6915 2065.00
66.7566 1995.00
66.8218 1778.00
66.887 1878.00
66.9522 1815.00
67.0174 1782.00
67.0826 1692.00
67.1478 1770.00
67.213 1572.00
67.2782 1638.00
67.3434 1605.00
67.4086 1600.00
67.4738 1596.00
67.539 1486.00
67.6042 1534.00
67.6694 1500.00
67.7346 1540.00
67.7998 1512.00
67.865 1441.00
67.9302 1515.00
67.9954 1531.00
68.0606 1476.00
68.1258 1496.00
68.191 1404.00
68.2562 1472.00
68.3214 1599.00
68.3866 1565.00
68.4518 1512.00
68.517 1481.00
68.5822 1563.00
68.6474 1542.00
68.7126 1544.00
68.7778 1472.00
68.843 1514.00
68.9082 1527.00
68.9734 1496.00
69.0386 1516.00
69.1038 1508.00
69.169 1535.00
69.2342 1535.00
69.2994 1513.00
69.3646 1457.00
69.4298 1490.00
69.495 1506.00
69.5602 1475.00
69.6254 1468.00
69.6906 1459.00
69.7558 1459.00
69.821 1401.00
69.8862 1514.00
69.9514 1486.00
70.0166 1502.00
70.0818 1460.00
70.147 1429.00
70.2122 1551.00
70.2774 1490.00
70.3426 1529.00
70.4078 1419.00
70.473 1509.00
70.5382 1451.00
70.6034 1413.00
70.6686 1498.00
70.7338 1471.00
70.799 1504.00
70.8642 1409.00
70.9294 1496.00
70.9946 1419.00
71.0598 1551.00
71.125 1499.00
71.1902 1546.00
71.2554 1534.00
71.3205 1537.00
71.3858 1452.00
71.451 1557.00
71.5162 1484.00
71.5813 1515.00
71.6465 1540.00
71.7117 1521.00
71.7769 1597.00
71.8421 1600.00
71.9073 1661.00
71.9725 1706.00
72.0377 1893.00
72.1029 2020.00
72.1681 2331.00
72.2333 2635.00
72.2985 2880.00
72.3637 2649.00
72.4289 2582.00
72.4941 2393.00
72.5593 2181.00
72.6245 1964.00
72.6897 1893.00
72.7549 1785.00
72.8201 1793.00
72.8853 1742.00
72.9505 1854.00
73.0157 1991.00
73.0809 2020.00
73.1461 2111.00
73.2113 2085.00
73.2765 2134.00
73.3417 2029.00
73.4069 1981.00
73.4721 1952.00
73.5373 2014.00
73.6025 2031.00
73.6677 2184.00
73.7329 2384.00
73.7981 2719.00
73.8633 3121.00
73.9285 3562.00
73.9937 3605.00
74.0589 3529.00
74.1241 3397.00
74.1893 3161.00
74.2545 3101.00
74.3197 2659.00
74.3849 2587.00
74.4501 2615.00
74.5153 2573.00
74.5805 2363.00
74.6457 2542.00
74.7109 2561.00
74.7761 2470.00
74.8413 2408.00
74.9065 2283.00
74.9717 2192.00
75.0369 2248.00
75.1021 2252.00
75.1673 2236.00
75.2325 2326.00
75.2977 2492.00
75.3629 2508.00
75.4281 2603.00
75.4933 2650.00
75.5585 2514.00
75.6237 2354.00
75.6889 2325.00
75.7541 2118.00
75.8193 1962.00
75.8845 1956.00
75.9497 1922.00
76.0149 2023.00
76.0801 2093.00
76.1452 2296.00
76.2104 2483.00
76.2756 2456.00
76.3409 2257.00
76.406 2325.00
76.4712 2193.00
76.5364 2094.00
76.6016 1985.00
76.6668 1761.00
76.732 1778.00
76.7972 1677.00
76.8624 1626.00
76.9276 1755.00
76.9928 1750.00
77.058 1709.00
77.1232 1696.00
77.1884 1774.00
77.2536 1758.00
77.3188 1743.00
77.384 1811.00
77.4492 1804.00
77.5144 1913.00
77.5796 2003.00
77.6448 2020.00
77.71 2127.00
77.7752 2245.00
77.8404 2355.00
77.9056 2294.00
77.9708 2123.00
78.036 2287.00
78.1012 2134.00
78.1664 1990.00
78.2316 1875.00
78.2968 1716.00
78.362 1715.00
78.4272 1636.00
78.4924 1570.00
78.5576 1595.00
78.6228 1550.00
78.688 1597.00
78.7532 1498.00
78.8184 1469.00
78.8836 1473.00
78.9488 1448.00
79.014 1546.00
79.0792 1428.00
79.1444 1465.00
79.2096 1441.00
79.2748 1462.00
79.34 1442.00
79.4052 1542.00
79.4704 1445.00
79.5356 1508.00
79.6008 1441.00
79.666 1483.00
79.7312 1499.00
79.7964 1528.00
79.8616 1479.00
79.9268 1642.00
79.992 1517.00
80.0572 1626.00
80.1224 1651.00
80.1876 1673.00
80.2528 1850.00
80.318 1962.00
80.3832 2013.00
80.4484 1944.00
80.5136 1887.00
80.5788 1963.00
80.644 1860.00
80.7092 1681.00
80.7744 1688.00
80.8396 1662.00
80.9048 1598.00
80.9699 1617.00
81.0351 1585.00
81.1003 1597.00
81.1655 1491.00
81.2307 1552.00
81.2959 1567.00
81.3611 1507.00
81.4263 1531.00
81.4915 1487.00
81.5567 1612.00
81.6219 1614.00
81.6871 1614.00
81.7523 1640.00
81.8175 1682.00
81.8827 1737.00
81.9479 1751.00
82.0131 1832.00
82.0783 1910.00
82.1435 2175.00
82.2087 2145.00
82.2739 2217.00
82.3391 2142.00
82.4043 2080.00
82.4695 2048.00
82.5347 1960.00
82.5999 1854.00
82.6651 1799.00
82.7303 1766.00
82.7955 1630.00
82.8607 1660.00
82.9259 1656.00
82.9911 1690.00
83.0563 1689.00
83.1215 1754.00
83.1867 1922.00
83.2519 2033.00
83.3171 2166.00
83.3823 2179.00
83.4475 2099.00
83.5127 2087.00
83.5779 1992.00
83.6431 2042.00
83.7083 1792.00
83.7735 1768.00
83.8387 1728.00
83.9039 1701.00
83.9691 1592.00
84.0343 1555.00
84.0995 1614.00
84.1647 1721.00
84.2299 1645.00
84.2951 1704.00
84.3603 1789.00
84.4255 1747.00
84.4907 1827.00
84.5559 1786.00
84.6211 1734.00
84.6863 1776.00
84.7515 1649.00
84.8167 1695.00
84.8819 1511.00
84.9471 1664.00
85.0123 1637.00
85.0775 1543.00
85.1427 1676.00
85.2079 1713.00
85.2731 1726.00
85.3383 1793.00
85.4035 1852.00
85.4687 1808.00
85.5339 1898.00
85.5991 1713.00
85.6643 1795.00
85.7295 1753.00
85.7946 1613.00
85.8598 1658.00
85.925 1554.00
85.9903 1678.00
86.0554 1606.00
86.1206 1688.00
86.1858 1631.00
86.251 1539.00
86.3162 1689.00
86.3814 1602.00
86.4466 1564.00
86.5118 1612.00
86.577 1610.00
86.6422 1468.00
86.7074 1490.00
86.7726 1444.00
86.8378 1521.00
86.903 1506.00
86.9682 1525.00
87.0334 1499.00
87.0986 1498.00
87.1638 1568.00
87.229 1598.00
87.2942 1552.00
87.3594 1526.00
87.4246 1574.00
87.4898 1640.00
87.555 1643.00
87.6202 1535.00
87.6854 1547.00
87.7506 1558.00
87.8158 1640.00
87.881 1697.00
87.9462 1594.00
88.0114 1611.00
88.0766 1577.00
88.1418 1671.00
88.207 1610.00
88.2722 1569.00
88.3374 1515.00
88.4026 1544.00
88.4678 1503.00
88.533 1531.00
88.5982 1654.00
88.6634 1594.00
88.7286 1570.00
88.7938 1573.00
88.859 1499.00
88.9242 1593.00
88.9894 1449.00
89.0546 1494.00
89.1198 1483.00
89.185 1503.00
89.2502 1450.00
89.3154 1502.00
89.3806 1575.00
89.4458 1544.00
89.511 1555.00
89.5762 1554.00
89.6414 1598.00
89.7066 1565.00
89.7718 1631.00
89.837 1647.00
89.9022 1621.00
89.9674 1580.00
90.0326 1681.00
90.0978 1628.00
90.163 1591.00
90.2282 1692.00
90.2934 1604.00
90.3586 1590.00
90.4238 1577.00
90.489 1529.00
90.5542 1409.00
90.6193 1474.00
90.6845 1473.00
90.7497 1502.00
90.8149 1408.00
90.8801 1475.00
90.9453 1460.00
91.0105 1388.00
91.0757 1416.00
91.1409 1519.00
91.2061 1504.00
91.2713 1432.00
91.3365 1500.00
91.4017 1524.00
91.4669 1485.00
91.5321 1480.00
91.5973 1586.00
91.6625 1588.00
91.7277 1731.00
91.7929 1833.00
91.8581 1936.00
91.9233 1994.00
91.9885 1838.00
92.0537 1793.00
92.1189 1764.00
92.1841 1740.00
92.2493 1740.00
92.3145 1715.00
92.3797 1496.00
92.4449 1518.00
92.5101 1566.00
92.5753 1484.00
92.6405 1587.00
92.7057 1571.00
92.7709 1477.00
92.8361 1498.00
92.9013 1403.00
92.9665 1518.00
93.0317 1448.00
93.0969 1457.00
93.1621 1493.00
93.2273 1406.00
93.2925 1387.00
93.3577 1447.00
93.4229 1443.00
93.4881 1429.00
93.5533 1490.00
93.6185 1561.00
93.6837 1500.00
93.7489 1549.00
93.8141 1582.00
93.8793 1683.00
93.9445 1806.00
94.0097 1968.00
94.0749 1878.00
94.1401 1776.00
94.2053 1741.00
94.2705 1792.00
94.3357 1742.00
94.4009 1741.00
94.4661 1662.00
94.5313 1637.00
94.5965 1720.00
94.6617 1757.00
94.7269 1695.00
94.7921 1861.00
94.8573 1971.00
94.9225 2075.00
94.9877 2241.00
95.0529 2115.00
95.1181 2194.00
95.1833 2119.00
95.2485 2096.00
95.3137 2049.00
95.3789 2044.00
95.444 2032.00
95.5092 1905.00
95.5744 1889.00
95.6396 1859.00
95.7048 1783.00
95.77 1782.00
95.8352 1806.00
95.9004 1768.00
95.9656 1731.00
96.0308 1694.00
96.096 1601.00
96.1612 1591.00
96.2264 1708.00
96.2916 1721.00
96.3568 1684.00
96.422 1606.00
96.4872 1616.00
96.5524 1529.00
96.6176 1629.00
96.6828 1590.00
96.748 1606.00
96.8132 1632.00
96.8784 1622.00
96.9436 1713.00
97.0088 1659.00
97.074 1700.00
97.1392 1796.00
97.2044 1901.00
97.2696 1865.00
97.3348 1954.00
97.4 1922.00
97.4652 1921.00
97.5304 2015.00
97.5956 1844.00
97.6608 1864.00
97.726 1805.00
97.7912 1654.00
97.8564 1663.00
97.9216 1626.00
97.9868 1629.00
98.052 1609.00
98.1172 1609.00
98.1824 1526.00
98.2476 1506.00
98.3128 1476.00
98.378 1585.00
98.4432 1501.00
98.5084 1509.00
98.5736 1550.00
98.6388 1542.00
98.704 1551.00
98.7692 1595.00
98.8344 1489.00
98.8996 1519.00
98.9648 1512.00
99.03 1594.00
99.0952 1568.00
99.1604 1642.00
99.2256 1713.00
99.2908 1665.00
99.356 1656.00
99.4212 1745.00
99.4864 1777.00
99.5516 1728.00
99.6168 1723.00
99.682 1651.00
99.7472 1675.00
99.8124 1576.00
99.8776 1679.00
99.9428 1526.00
100.008 1550.00
100.073 1541.00
100.095 1589.00