File: data/xrd_creation/results/PG_2050-1.xy
9.903433 3104.00
9.968632 3053.00
10.0338 2967.00
10.099 3049.00
10.1642 2959.00
10.2294 2921.00
10.2946 2895.00
10.3598 2809.00
10.425 2878.00
10.4902 2945.00
10.5554 2914.00
10.6206 2799.00
10.6858 2769.00
10.751 2764.00
10.8162 2804.00
10.8814 2819.00
10.9466 2747.00
11.0118 2647.00
11.077 2686.00
11.1422 2675.00
11.2074 2742.00
11.2726 2770.00
11.3378 2760.00
11.403 2605.00
11.4682 2669.00
11.5334 2588.00
11.5986 2671.00
11.6638 2610.00
11.729 2553.00
11.7942 2685.00
11.8594 2633.00
11.9246 2497.00
11.9898 2628.00
12.055 2505.00
12.1202 2535.00
12.1854 2524.00
12.2506 2448.00
12.3158 2452.00
12.381 2538.00
12.4462 2447.00
12.5114 2483.00
12.5766 2488.00
12.6418 2353.00
12.707 2407.00
12.7722 2410.00
12.8374 2354.00
12.9026 2401.00
12.9678 2434.00
13.033 2344.00
13.0982 2356.00
13.1634 2262.00
13.2286 2357.00
13.2938 2366.00
13.359 2331.00
13.4242 2342.00
13.4894 2344.00
13.5546 2245.00
13.6198 2274.00
13.685 2299.00
13.7502 2272.00
13.8154 2307.00
13.8805 2283.00
13.9457 2248.00
14.0109 2316.00
14.0761 2333.00
14.1413 2365.00
14.2065 2388.00
14.2717 2449.00
14.3369 2463.00
14.4021 2313.00
14.4673 2423.00
14.5325 2323.00
14.5977 2314.00
14.6629 2343.00
14.7281 2322.00
14.7933 2272.00
14.8585 2426.00
14.9237 2439.00
14.9889 2359.00
15.0541 2318.00
15.1193 2367.00
15.1845 2357.00
15.2497 2487.00
15.3149 2309.00
15.3801 2380.00
15.4453 2328.00
15.5105 2412.00
15.5757 2304.00
15.6409 2291.00
15.7061 2248.00
15.7713 2327.00
15.8365 2397.00
15.9017 2269.00
15.9669 2191.00
16.0321 2316.00
16.0973 2236.00
16.1625 2249.00
16.2277 2341.00
16.2929 2322.00
16.3581 2161.00
16.4233 2241.00
16.4885 2237.00
16.5537 2228.00
16.6189 2257.00
16.6841 2166.00
16.7493 2242.00
16.8145 2319.00
16.8797 2206.00
16.9449 2200.00
17.0101 2229.00
17.0753 2279.00
17.1405 2335.00
17.2057 2367.00
17.2709 2245.00
17.3361 2131.00
17.4013 2263.00
17.4665 2220.00
17.5317 2212.00
17.5969 2334.00
17.6621 2590.00
17.7273 2847.00
17.7925 3319.00
17.8577 3725.00
17.9229 2774.00
17.9881 2256.00
18.0533 2094.00
18.1185 2041.00
18.1837 2048.00
18.2489 2195.00
18.3141 2141.00
18.3793 2096.00
18.4445 2109.00
18.5097 2077.00
18.5749 2095.00
18.6401 2108.00
18.7052 2003.00
18.7704 1974.00
18.8356 2076.00
18.9008 2148.00
18.966 1963.00
19.0312 2035.00
19.0964 1919.00
19.1616 2056.00
19.2268 2047.00
19.292 1936.00
19.3572 2002.00
19.4224 2071.00
19.4876 2108.00
19.5528 1962.00
19.618 2014.00
19.6832 2032.00
19.7484 1959.00
19.8136 2047.00
19.8788 1960.00
19.944 1949.00
20.0092 1926.00
20.0744 1968.00
20.1396 1987.00
20.2048 1935.00
20.27 1980.00
20.3352 1930.00
20.4004 2007.00
20.4656 2084.00
20.5308 2049.00
20.596 2106.00
20.6612 2355.00
20.7264 2753.00
20.7916 3495.00
20.8568 4572.00
20.922 5601.00
20.9872 5041.00
21.0524 3133.00
21.1176 2252.00
21.1828 2087.00
21.248 1951.00
21.3132 2053.00
21.3784 1894.00
21.4436 1930.00
21.5088 1924.00
21.574 1866.00
21.6392 1948.00
21.7044 1931.00
21.7696 1941.00
21.8348 1880.00
21.9 1878.00
21.9652 1927.00
22.0304 1900.00
22.0956 1918.00
22.1608 1889.00
22.226 1890.00
22.2912 1834.00
22.3564 1933.00
22.4216 1856.00
22.4868 1805.00
22.552 1895.00
22.6172 1846.00
22.6824 1840.00
22.7476 1917.00
22.8128 1785.00
22.878 1833.00
22.9432 1850.00
23.0084 1852.00
23.0736 1796.00
23.1388 1766.00
23.204 1832.00
23.2692 1727.00
23.3344 1851.00
23.3996 1896.00
23.4647 1948.00
23.5299 1990.00
23.5951 1871.00
23.6603 1927.00
23.7255 1889.00
23.7907 1928.00
23.8559 2021.00
23.9211 1894.00
23.9863 2119.00
24.0515 2596.00
24.1167 3677.00
24.1819 6019.00
24.2471 9959.00
24.3123 14232.00
24.3775 7283.00
24.4427 2548.00
24.5079 2154.00
24.5731 2022.00
24.6383 2000.00
24.7035 1871.00
24.7687 1825.00
24.8339 1870.00
24.8991 1801.00
24.9643 1797.00
25.0295 1746.00
25.0947 1817.00
25.1599 1705.00
25.2251 1829.00
25.2903 1885.00
25.3555 1790.00
25.4207 1808.00
25.4859 1895.00
25.5511 1786.00
25.6163 1773.00
25.6815 1814.00
25.7467 1843.00
25.8119 1801.00
25.8771 1785.00
25.9423 1781.00
26.0075 1752.00
26.0727 1835.00
26.1379 1748.00
26.2031 1749.00
26.2683 1787.00
26.3335 1738.00
26.3987 1658.00
26.4639 1767.00
26.5291 1822.00
26.5943 1812.00
26.6595 1908.00
26.7247 1798.00
26.7899 1846.00
26.8551 1871.00
26.9203 1802.00
26.9855 1786.00
27.0507 1885.00
27.1159 1718.00
27.1811 1826.00
27.2463 1744.00
27.3115 1742.00
27.3767 1852.00
27.4419 1769.00
27.5071 1756.00
27.5723 1873.00
27.6375 1790.00
27.7027 1842.00
27.7679 1753.00
27.8331 1767.00
27.8983 1822.00
27.9635 1843.00
28.0287 1796.00
28.0939 1881.00
28.1591 1817.00
28.2243 1738.00
28.2894 1833.00
28.3546 1784.00
28.4198 1786.00
28.485 1856.00
28.5502 1978.00
28.6154 1947.00
28.6806 2007.00
28.7458 2057.00
28.811 2145.00
28.8762 2231.00
28.9414 2164.00
29.0066 2407.00
29.0718 2415.00
29.137 2641.00
29.2022 2969.00
29.2674 3471.00
29.3326 4780.00
29.3978 8294.00
29.463 16352.00
29.5282 29925.00
29.5934 39272.00
29.6586 25228.00
29.7238 10450.00
29.789 4769.00
29.8542 3592.00
29.9194 2940.00
29.9846 2849.00
30.0498 3161.00
30.115 3579.00
30.1802 2856.00
30.2454 2263.00
30.3106 2012.00
30.3758 1984.00
30.441 1878.00
30.5062 1980.00
30.5714 2006.00
30.6366 1924.00
30.7018 1973.00
30.767 1970.00
30.8322 1936.00
30.8974 2082.00
30.9626 2764.00
31.0278 4473.00
31.093 8200.00
31.1582 13043.00
31.2234 7506.00
31.2886 3188.00
31.3538 2112.00
31.419 1895.00
31.4842 1951.00
31.5494 1741.00
31.6146 1732.00
31.6798 1700.00
31.745 1712.00
31.8102 1756.00
31.8754 1763.00
31.9406 1922.00
32.0058 1962.00
32.071 1774.00
32.1362 1617.00
32.2014 1736.00
32.2666 1698.00
32.3318 1711.00
32.397 1685.00
32.4622 1640.00
32.5274 1690.00
32.5926 1662.00
32.6578 1583.00
32.723 1719.00
32.7882 1637.00
32.8534 1666.00
32.9186 1652.00
32.9838 1656.00
33.0489 1696.00
33.1141 1670.00
33.1793 1665.00
33.2445 1598.00
33.3097 1650.00
33.3749 1564.00
33.4401 1559.00
33.5053 1661.00
33.5705 1722.00
33.6357 1724.00
33.7009 1719.00
33.7661 1848.00
33.8313 1821.00
33.8965 1988.00
33.9617 2294.00
34.0269 3087.00
34.0921 4835.00
34.1573 8174.00
34.2225 10827.00
34.2877 7931.00
34.3529 5567.00
34.4181 5334.00
34.4833 3871.00
34.5485 2858.00
34.6137 1856.00
34.6789 1681.00
34.7441 1645.00
34.8093 1669.00
34.8745 1560.00
34.9397 1599.00
35.0049 1628.00
35.0701 1567.00
35.1353 1577.00
35.2005 1633.00
35.2657 1544.00
35.3309 1614.00
35.3961 1581.00
35.4613 1587.00
35.5265 1740.00
35.5917 2096.00
35.6569 2548.00
35.7221 2042.00
35.7873 1701.00
35.8525 1554.00
35.9177 1599.00
35.9829 1463.00
36.0481 1595.00
36.1133 1619.00
36.1785 1890.00
36.2437 2478.00
36.3089 3264.00
36.3741 2986.00
36.4393 2298.00
36.5045 1831.00
36.5697 1647.00
36.6349 1531.00
36.7001 1490.00
36.7653 1423.00
36.8305 1488.00
36.8957 1476.00
36.9609 1491.00
37.0261 1451.00
37.0913 1495.00
37.1565 1471.00
37.2217 1514.00
37.2869 1442.00
37.3521 1458.00
37.4173 1453.00
37.4825 1542.00
37.5477 1418.00
37.6129 1515.00
37.6781 1502.00
37.7433 1375.00
37.8085 1410.00
37.8736 1521.00
37.9388 1413.00
38.004 1475.00
38.0692 1491.00
38.1344 1531.00
38.1996 1540.00
38.2648 1697.00
38.33 1918.00
38.3952 1815.00
38.4604 1797.00
38.5256 1769.00
38.5908 1976.00
38.656 1715.00
38.7212 1808.00
38.7864 2237.00
38.8516 3051.00
38.9168 2318.00
38.982 2252.00
39.0472 1491.00
39.1124 1413.00
39.1776 1489.00
39.2428 1451.00
39.308 1451.00
39.3732 1322.00
39.4384 1401.00
39.5036 1385.00
39.5688 1519.00
39.634 1424.00
39.6992 1436.00
39.7644 1480.00
39.8296 1522.00
39.8948 1483.00
39.96 1420.00
40.0252 1592.00
40.0904 1793.00
40.1556 2277.00
40.2208 3360.00
40.286 3431.00
40.3512 2680.00
40.4164 1985.00
40.4816 1665.00
40.5468 1524.00
40.612 1455.00
40.6772 1472.00
40.7424 1458.00
40.8076 1470.00
40.8728 1495.00
40.938 1526.00
41.0032 1842.00
41.0684 1928.00
41.1336 1687.00
41.1988 1563.00
41.264 1415.00
41.3292 1399.00
41.3944 1271.00
41.4596 1333.00
41.5248 1367.00
41.59 1375.00
41.6552 1398.00
41.7204 1398.00
41.7856 1347.00
41.8508 1372.00
41.916 1470.00
41.9812 1502.00
42.0464 1619.00
42.1116 1677.00
42.1768 1625.00
42.242 1594.00
42.3072 1411.00
42.3724 1418.00
42.4376 1374.00
42.5028 1373.00
42.568 1413.00
42.6332 1377.00
42.6983 1339.00
42.7635 1405.00
42.8287 1339.00
42.8939 1443.00
42.9591 1384.00
43.0243 1419.00
43.0895 1433.00
43.1547 1472.00
43.2199 1439.00
43.2851 1310.00
43.3503 1389.00
43.4155 1371.00
43.4807 1511.00
43.5459 1506.00
43.6111 1550.00
43.6763 1682.00
43.7415 2025.00
43.8067 2910.00
43.8719 4240.00
43.9371 4048.00
44.0023 3205.00
44.0675 2235.00
44.1327 1707.00
44.1979 1451.00
44.2631 1392.00
44.3283 1479.00
44.3935 1378.00
44.4587 1341.00
44.5239 1409.00
44.5891 1395.00
44.6543 1421.00
44.7195 1370.00
44.7847 1390.00
44.8499 1436.00
44.9151 1370.00
44.9803 1422.00
45.0455 1430.00
45.1107 1418.00
45.1759 1295.00
45.2411 1328.00
45.3063 1455.00
45.3715 1299.00
45.4367 1399.00
45.5019 1409.00
45.5671 1430.00
45.6323 1401.00
45.6975 1432.00
45.7627 1428.00
45.8279 1408.00
45.8931 1436.00
45.9583 1460.00
46.0235 1572.00
46.0887 2159.00
46.1539 2987.00
46.2191 2035.00
46.2843 2098.00
46.3495 1553.00
46.4147 1462.00
46.4799 1469.00
46.5451 1396.00
46.6103 1552.00
46.6755 1692.00
46.7407 2112.00
46.8059 4206.00
46.8711 7494.00
46.9363 4379.00
47.0015 4412.00
47.0667 2094.00
47.1319 1719.00
47.1971 1881.00
47.2623 2335.00
47.3275 2321.00
47.3927 2081.00
47.4579 1856.00
47.523 1544.00
47.5882 1529.00
47.6534 1496.00
47.7186 1496.00
47.7838 1452.00
47.849 1507.00
47.9142 1512.00
47.9794 1659.00
48.0446 1880.00
48.1098 1804.00
48.175 1723.00
48.2402 1627.00
48.3054 1470.00
48.3706 1584.00
48.4358 1692.00
48.501 1717.00
48.5662 1853.00
48.6314 2060.00
48.6966 2657.00
48.7618 3511.00
48.827 7234.00
48.8922 14423.00
48.9574 15387.00
49.0226 10727.00
49.0878 8001.00
49.153 3885.00
49.2182 2502.00
49.2834 2081.00
49.3486 1854.00
49.4138 1690.00
49.479 1625.00
49.5442 1505.00
49.6094 1433.00
49.6746 1440.00
49.7398 1369.00
49.805 1472.00
49.8702 1431.00
49.9354 1322.00
50.0006 1464.00
50.0658 1387.00
50.131 1424.00
50.1962 1403.00
50.2614 1414.00
50.3266 1444.00
50.3918 1500.00
50.457 1828.00
50.5222 2236.00
50.5874 1881.00
50.6526 1737.00
50.7178 1581.00
50.783 1430.00
50.8482 1362.00
50.9134 1295.00
50.9786 1348.00
51.0438 1333.00
51.109 1318.00
51.1742 1385.00
51.2394 1277.00
51.3046 1304.00
51.3698 1324.00
51.435 1357.00
51.5002 1343.00
51.5654 1357.00
51.6306 1344.00
51.6958 1360.00
51.761 1325.00
51.8262 1330.00
51.8914 1364.00
51.9566 1368.00
52.0218 1539.00
52.087 1438.00
52.1522 1401.00
52.2174 1346.00
52.2826 1419.00
52.3477 1318.00
52.4129 1338.00
52.4781 1275.00
52.5433 1406.00
52.6085 1479.00
52.6737 1405.00
52.7389 1387.00
52.8041 1377.00
52.8693 1414.00
52.9345 1372.00
52.9997 1294.00
53.0649 1317.00
53.1301 1321.00
53.1953 1305.00
53.2605 1333.00
53.3257 1450.00
53.3909 1477.00
53.4561 1683.00
53.5213 2252.00
53.5865 2961.00
53.6517 2562.00
53.7169 2331.00
53.7821 1901.00
53.8473 1537.00
53.9125 1359.00
53.9777 1430.00
54.0429 1316.00
54.1081 1327.00
54.1733 1365.00
54.2385 1367.00
54.3037 1352.00
54.3689 1433.00
54.4341 1339.00
54.4993 1339.00
54.5645 1297.00
54.6297 1337.00
54.6949 1285.00
54.7601 1371.00
54.8253 1296.00
54.8905 1368.00
54.9557 1306.00
55.0209 1499.00
55.0861 1714.00
55.1513 1574.00
55.2165 1467.00
55.2817 1568.00
55.3469 1571.00
55.4121 2177.00
55.4773 2354.00
55.5425 1686.00
55.6077 1916.00
55.6729 1399.00
55.7381 1335.00
55.8033 1416.00
55.8685 1346.00
55.9337 1353.00
55.9989 1332.00
56.0641 1296.00
56.1293 1331.00
56.1945 1360.00
56.2597 1407.00
56.3249 1378.00
56.3901 1499.00
56.4553 1811.00
56.5205 2517.00
56.5857 2676.00
56.6509 2175.00
56.7161 2153.00
56.7813 1671.00
56.8465 1564.00
56.9117 1420.00
56.9769 1393.00
57.042 1399.00
57.1073 1319.00
57.1724 1428.00
57.2376 1336.00
57.3028 1399.00
57.368 1372.00
57.4332 1487.00
57.4984 1513.00
57.5636 1502.00
57.6288 1724.00
57.694 1746.00
57.7592 2095.00
57.8244 2632.00
57.8896 4692.00
57.9548 9096.00
58.02 10343.00
58.0852 6768.00
58.1504 6700.00
58.2156 4202.00
58.2808 2355.00
58.346 1866.00
58.4112 1650.00
58.4764 1609.00
58.5416 1489.00
58.6068 1478.00
58.672 1571.00
58.7372 2075.00
58.8024 2065.00
58.8676 1667.00
58.9328 1970.00
58.998 1472.00
59.0632 1572.00
59.1284 2021.00
59.1936 2689.00
59.2588 2136.00
59.324 2650.00
59.3892 3551.00
59.4544 3133.00
59.5196 2409.00
59.5848 2359.00
59.65 1771.00
59.7152 1482.00
59.7804 1434.00
59.8456 1344.00
59.9108 1324.00
59.976 1289.00
60.0412 1379.00
60.1064 1289.00
60.1716 1630.00
60.2368 1458.00
60.302 1378.00
60.3672 1456.00
60.4324 1344.00
60.4976 1330.00
60.5628 1343.00
60.628 1432.00
60.6932 1719.00
60.7584 2415.00
60.8236 2915.00
60.8888 2227.00
60.954 2107.00
61.0192 1924.00
61.0844 1510.00
61.1496 1305.00
61.2148 1329.00
61.28 1339.00
61.3452 1292.00
61.4104 1274.00
61.4756 1277.00
61.5408 1289.00
61.606 1341.00
61.6712 1281.00
61.7364 1274.00
61.8016 1255.00
61.8667 1282.00
61.932 1372.00
61.9971 1356.00
62.0623 1488.00
62.1275 1650.00
62.1927 1959.00
62.2579 1707.00
62.3231 1595.00
62.3883 1580.00
62.4535 1330.00
62.5187 1305.00
62.5839 1282.00
62.6491 1252.00
62.7143 1247.00
62.7795 1302.00
62.8447 1293.00
62.9099 1235.00
62.9751 1270.00
63.0403 1222.00
63.1055 1293.00
63.1707 1234.00
63.2359 1252.00
63.3011 1228.00
63.3663 1343.00
63.4315 1427.00
63.4967 1526.00
63.5619 1591.00
63.6271 1508.00
63.6923 1495.00
63.7575 1435.00
63.8227 1267.00
63.8879 1223.00
63.9531 1292.00
64.0183 1413.00
64.0835 1315.00
64.1487 1468.00
64.2139 1433.00
64.2791 1651.00
64.3443 2183.00
64.4095 1571.00
64.4747 1484.00
64.5399 1732.00
64.6051 1419.00
64.6703 1347.00
64.7355 1464.00
64.8007 1682.00
64.8659 2176.00
64.9311 2101.00
64.9963 1715.00
65.0615 1800.00
65.1267 1713.00
65.1919 1299.00
65.2571 1320.00
65.3223 1262.00
65.3875 1177.00
65.4527 1304.00
65.5179 1221.00
65.5831 1225.00
65.6483 1290.00
65.7135 1277.00
65.7787 1237.00
65.8439 1286.00
65.9091 1258.00
65.9743 1246.00
66.0395 1350.00
66.1047 1331.00
66.1699 1548.00
66.2351 1680.00
66.3003 1475.00
66.3655 1436.00
66.4307 1468.00
66.4959 1385.00
66.561 1244.00
66.6263 1289.00
66.6915 1174.00
66.7566 1192.00
66.8218 1198.00
66.887 1167.00
66.9522 1273.00
67.0174 1356.00
67.0826 1182.00
67.1478 1274.00
67.213 1265.00
67.2782 1291.00
67.3434 1176.00
67.4086 1172.00
67.4738 1227.00
67.539 1172.00
67.6042 1205.00
67.6694 1220.00
67.7346 1216.00
67.7998 1181.00
67.865 1190.00
67.9302 1148.00
67.9954 1205.00
68.0606 1187.00
68.1258 1182.00
68.191 1269.00
68.2562 1185.00
68.3214 1172.00
68.3866 1201.00
68.4518 1224.00
68.517 1239.00
68.5822 1203.00
68.6474 1264.00
68.7126 1176.00
68.7778 1209.00
68.843 1167.00
68.9082 1286.00
68.9734 1298.00
69.0386 1227.00
69.1038 1238.00
69.169 1202.00
69.2342 1241.00
69.2994 1196.00
69.3646 1209.00
69.4298 1253.00
69.495 1245.00
69.5602 1241.00
69.6254 1240.00
69.6906 1258.00
69.7558 1322.00
69.821 1234.00
69.8862 1334.00
69.9514 1468.00
70.0166 2131.00
70.0818 2591.00
70.147 2080.00
70.2122 1951.00
70.2774 2036.00
70.3426 1660.00
70.4078 1432.00
70.473 1303.00
70.5382 1306.00
70.6034 1240.00
70.6686 1250.00
70.7338 1241.00
70.799 1281.00
70.8642 1259.00
70.9294 1226.00
70.9946 1263.00
71.0598 1274.00
71.125 1302.00
71.1902 1401.00
71.2554 1461.00
71.3205 1798.00
71.3858 2456.00
71.451 2314.00
71.5162 1936.00
71.5813 1932.00
71.6465 1796.00
71.7117 1472.00
71.7769 1340.00
71.8421 1437.00
71.9073 1681.00
71.9725 1421.00
72.0377 1289.00
72.1029 1480.00
72.1681 1301.00
72.2333 1302.00
72.2985 1295.00
72.3637 1376.00
72.4289 1300.00
72.4941 1380.00
72.5593 1516.00
72.6245 1984.00
72.6897 2417.00
72.7549 1813.00
72.8201 1598.00
72.8853 1807.00
72.9505 1581.00
73.0157 1379.00
73.0809 1281.00
73.1461 1232.00
73.2113 1251.00
73.2765 1287.00
73.3417 1206.00
73.4069 1210.00
73.4721 1192.00
73.5373 1234.00
73.6025 1159.00
73.6677 1190.00
73.7329 1270.00
73.7981 1311.00
73.8633 1535.00
73.9285 1749.00
73.9937 1669.00
74.0589 1501.00
74.1241 1528.00
74.1893 1482.00
74.2545 1328.00
74.3197 1211.00
74.3849 1230.00
74.4501 1449.00
74.5153 1266.00
74.5805 1280.00
74.6457 1296.00
74.7109 1458.00
74.7761 1937.00
74.8413 1922.00
74.9065 1400.00
74.9717 1556.00
75.0369 1724.00
75.1021 1579.00
75.1673 1862.00
75.2325 1735.00
75.2977 1497.00
75.3629 1515.00
75.4281 1507.00
75.4933 1385.00
75.5585 1291.00
75.6237 1189.00
75.6889 1234.00
75.7541 1148.00
75.8193 1199.00
75.8845 1189.00
75.9497 1186.00
76.0149 1343.00
76.0801 1308.00
76.1452 1190.00
76.2104 1246.00
76.2756 1258.00
76.3409 1434.00
76.406 1547.00
76.4712 1510.00
76.5364 1377.00
76.6016 1397.00
76.6668 1463.00
76.732 1319.00
76.7972 1277.00
76.8624 1201.00
76.9276 1224.00
76.9928 1396.00
77.058 1317.00
77.1232 1296.00
77.1884 1309.00
77.2536 1309.00
77.3188 1259.00
77.384 1282.00
77.4492 1222.00
77.5144 1375.00
77.5796 1573.00
77.6448 2100.00
77.71 2107.00
77.7752 1646.00
77.8404 1583.00
77.9056 1745.00
77.9708 1548.00
78.036 1359.00
78.1012 1304.00
78.1664 1304.00
78.2316 1207.00
78.2968 1308.00
78.362 1310.00
78.4272 1183.00
78.4924 1336.00
78.5576 1304.00
78.6228 1368.00
78.688 1421.00
78.7532 1700.00
78.8184 2192.00
78.8836 3101.00
78.9488 3332.00
79.014 2324.00
79.0792 2142.00
79.1444 2408.00
79.2096 1957.00
79.2748 1579.00
79.34 1377.00
79.4052 1348.00
79.4704 1354.00
79.5356 1292.00
79.6008 1300.00
79.666 1425.00
79.7312 1463.00
79.7964 1839.00
79.8616 1764.00
79.9268 1351.00
79.992 1411.00
80.0572 1694.00
80.1224 1694.00
80.1876 1996.00
80.2528 1490.00
80.318 1386.00
80.3832 1469.00
80.4484 1477.00
80.5136 1329.00
80.5788 1212.00
80.644 1181.00
80.7092 1198.00
80.7744 1293.00
80.8396 1189.00
80.9048 1176.00
80.9699 1247.00
81.0351 1317.00
81.1003 1242.00
81.1655 1363.00
81.2307 1646.00
81.2959 2147.00
81.3611 2572.00
81.4263 2208.00
81.4915 1766.00
81.5567 1764.00
81.6219 2001.00
81.6871 1635.00
81.7523 1443.00
81.8175 1308.00
81.8827 1458.00
81.9479 1724.00
82.0131 1482.00
82.0783 1334.00
82.1435 1295.00
82.2087 1388.00
82.2739 1226.00
82.3391 1161.00
82.4043 1236.00
82.4695 1331.00
82.5347 1326.00
82.5999 1626.00
82.6651 1520.00
82.7303 1271.00
82.7955 1403.00
82.8607 1386.00
82.9259 1346.00
82.9911 1264.00
83.0563 1250.00
83.1215 1186.00
83.1867 1199.00
83.2519 1264.00
83.3171 1168.00
83.3823 1233.00
83.4475 1187.00
83.5127 1273.00
83.5779 1227.00
83.6431 1252.00
83.7083 1372.00
83.7735 1475.00
83.8387 1460.00
83.9039 1335.00
83.9691 1341.00
84.0343 1277.00
84.0995 1340.00
84.1647 1314.00
84.2299 1190.00
84.2951 1224.00
84.3603 1210.00
84.4255 1153.00
84.4907 1071.00
84.5559 1258.00
84.6211 1174.00
84.6863 1268.00
84.7515 1225.00
84.8167 1274.00
84.8819 1358.00
84.9471 1649.00
85.0123 1901.00
85.0775 1545.00
85.1427 1426.00
85.2079 1480.00
85.2731 1513.00
85.3383 1415.00
85.4035 1357.00
85.4687 1148.00
85.5339 1183.00
85.5991 1250.00
85.6643 1170.00
85.7295 1387.00
85.7946 1435.00
85.8598 1227.00
85.925 1198.00
85.9903 1239.00
86.0554 1375.00
86.1206 1220.00
86.1858 1261.00
86.251 1278.00
86.3162 1241.00
86.3814 1182.00
86.4466 1131.00
86.5118 1245.00
86.577 1100.00
86.6422 1206.00
86.7074 1160.00
86.7726 1155.00
86.8378 1129.00
86.903 1182.00
86.9682 1202.00
87.0334 1128.00
87.0986 1273.00
87.1638 1248.00
87.229 1291.00
87.2942 1331.00
87.3594 1564.00
87.4246 1926.00
87.4898 1690.00
87.555 1353.00
87.6202 1434.00
87.6854 1487.00
87.7506 1437.00
87.8158 1239.00
87.881 1327.00
87.9462 1207.00
88.0114 1166.00
88.0766 1166.00
88.1418 1171.00
88.207 1221.00
88.2722 1155.00
88.3374 1172.00
88.4026 1184.00
88.4678 1114.00
88.533 1179.00
88.5982 1221.00
88.6634 1104.00
88.7286 1146.00
88.7938 1155.00
88.859 1201.00
88.9242 1188.00
88.9894 1168.00
89.0546 1104.00
89.1198 1185.00
89.185 1228.00
89.2502 1174.00
89.3154 1196.00
89.3806 1208.00
89.4458 1188.00
89.511 1207.00
89.5762 1233.00
89.6414 1267.00
89.7066 1413.00
89.7718 1611.00
89.837 1933.00
89.9022 1652.00
89.9674 1429.00
90.0326 1462.00
90.0978 1561.00
90.163 1566.00
90.2282 1336.00
90.2934 1280.00
90.3586 1295.00
90.4238 1229.00
90.489 1211.00
90.5542 1296.00
90.6193 1305.00
90.6845 1221.00
90.7497 1261.00
90.8149 1389.00
90.8801 1500.00
90.9453 1772.00
91.0105 2497.00
91.0757 2607.00
91.1409 1889.00
91.2061 1679.00
91.2713 1763.00
91.3365 2010.00
91.4017 1699.00
91.4669 1426.00
91.5321 1278.00
91.5973 1225.00
91.6625 1227.00
91.7277 1293.00
91.7929 1258.00
91.8581 1222.00
91.9233 1188.00
91.9885 1233.00
92.0537 1328.00
92.1189 1364.00
92.1841 1588.00
92.2493 1800.00
92.3145 1611.00
92.3797 1417.00
92.4449 1401.00
92.5101 1490.00
92.5753 1490.00
92.6405 1345.00
92.7057 1292.00
92.7709 1189.00
92.8361 1164.00
92.9013 1206.00
92.9665 1137.00
93.0317 1156.00
93.0969 1228.00
93.1621 1176.00
93.2273 1237.00
93.2925 1240.00
93.3577 1409.00
93.4229 1505.00
93.4881 1531.00
93.5533 1381.00
93.6185 1316.00
93.6837 1294.00
93.7489 1368.00
93.8141 1321.00
93.8793 1242.00
93.9445 1189.00
94.0097 1163.00
94.0749 1152.00
94.1401 1163.00
94.2053 1205.00
94.2705 1193.00
94.3357 1204.00
94.4009 1252.00
94.4661 1223.00
94.5313 1357.00
94.5965 1349.00
94.6617 1339.00
94.7269 1291.00
94.7921 1269.00
94.8573 1324.00
94.9225 1370.00
94.9877 1341.00
95.0529 1290.00
95.1181 1271.00
95.1833 1253.00
95.2485 1249.00
95.3137 1261.00
95.3789 1205.00
95.444 1211.00
95.5092 1426.00
95.5744 1584.00
95.6396 1446.00
95.7048 1329.00
95.77 1551.00
95.8352 2078.00
95.9004 2239.00
95.9656 1710.00
96.0308 1511.00
96.096 1484.00
96.1612 1542.00
96.2264 1650.00
96.2916 1545.00
96.3568 1306.00
96.422 1192.00
96.4872 1335.00
96.5524 1269.00
96.6176 1344.00
96.6828 1360.00
96.748 1162.00
96.8132 1192.00
96.8784 1298.00
96.9436 1399.00
97.0088 1385.00
97.074 1490.00
97.1392 1318.00
97.2044 1288.00
97.2696 1328.00
97.3348 1244.00
97.4 1368.00
97.4652 1235.00
97.5304 1265.00
97.5956 1211.00
97.6608 1213.00
97.726 1211.00
97.7912 1201.00
97.8564 1263.00
97.9216 1228.00
97.9868 1222.00
98.052 1318.00
98.1172 1440.00
98.1824 1634.00
98.2476 2141.00
98.3128 2384.00
98.378 1988.00
98.4432 1571.00
98.5084 1527.00
98.5736 1747.00
98.6388 1798.00
98.704 1546.00
98.7692 1395.00
98.8344 1284.00
98.8996 1283.00
98.9648 1238.00
99.03 1287.00
99.0952 1232.00
99.1604 1196.00
99.2256 1339.00
99.2908 1295.00
99.356 1474.00
99.4212 1768.00
99.4864 1937.00
99.5516 2035.00
99.6168 1654.00
99.682 1530.00
99.7472 1785.00
99.8124 2135.00
99.8776 1818.00
99.9428 1492.00
100.008 1309.00
100.073 1376.00
100.095 1389.00