File: data/xrd_creation/results/PG_2247-1.xy
9.903433 2784.00
9.968632 2781.00
10.0338 2730.00
10.099 2596.00
10.1642 2691.00
10.2294 2604.00
10.2946 2690.00
10.3598 2633.00
10.425 2521.00
10.4902 2557.00
10.5554 2563.00
10.6206 2482.00
10.6858 2503.00
10.751 2574.00
10.8162 2582.00
10.8814 2525.00
10.9466 2449.00
11.0118 2474.00
11.077 2472.00
11.1422 2393.00
11.2074 2363.00
11.2726 2432.00
11.3378 2384.00
11.403 2383.00
11.4682 2336.00
11.5334 2324.00
11.5986 2355.00
11.6638 2237.00
11.729 2265.00
11.7942 2240.00
11.8594 2145.00
11.9246 2265.00
11.9898 2290.00
12.055 2233.00
12.1202 2270.00
12.1854 2317.00
12.2506 2280.00
12.3158 2390.00
12.381 2483.00
12.4462 2647.00
12.5114 2929.00
12.5766 3091.00
12.6418 3078.00
12.707 2680.00
12.7722 2434.00
12.8374 2285.00
12.9026 2180.00
12.9678 2183.00
13.033 2125.00
13.0982 2041.00
13.1634 2143.00
13.2286 2020.00
13.2938 2062.00
13.359 2034.00
13.4242 1957.00
13.4894 1994.00
13.5546 1984.00
13.6198 2011.00
13.685 1979.00
13.7502 2079.00
13.8154 2039.00
13.8805 2202.00
13.9457 2400.00
14.0109 2633.00
14.0761 3122.00
14.1413 3840.00
14.2065 4673.00
14.2717 4986.00
14.3369 3959.00
14.4021 2586.00
14.4673 2141.00
14.5325 1989.00
14.5977 1920.00
14.6629 1828.00
14.7281 1829.00
14.7933 1843.00
14.8585 1807.00
14.9237 1689.00
14.9889 1752.00
15.0541 1724.00
15.1193 1702.00
15.1845 1769.00
15.2497 1718.00
15.3149 1785.00
15.3801 1791.00
15.4453 1775.00
15.5105 1791.00
15.5757 1816.00
15.6409 1844.00
15.7061 1865.00
15.7713 2008.00
15.8365 1918.00
15.9017 1862.00
15.9669 1714.00
16.0321 1681.00
16.0973 1702.00
16.1625 1636.00
16.2277 1702.00
16.2929 1651.00
16.3581 1649.00
16.4233 1605.00
16.4885 1630.00
16.5537 1666.00
16.6189 1667.00
16.6841 1568.00
16.7493 1621.00
16.8145 1590.00
16.8797 1627.00
16.9449 1670.00
17.0101 1563.00
17.0753 1634.00
17.1405 1577.00
17.2057 1626.00
17.2709 1629.00
17.3361 1544.00
17.4013 1508.00
17.4665 1578.00
17.5317 1579.00
17.5969 1606.00
17.6621 1594.00
17.7273 1631.00
17.7925 1578.00
17.8577 1506.00
17.9229 1533.00
17.9881 1621.00
18.0533 1547.00
18.1185 1492.00
18.1837 1544.00
18.2489 1549.00
18.3141 1498.00
18.3793 1491.00
18.4445 1474.00
18.5097 1485.00
18.5749 1463.00
18.6401 1615.00
18.7052 1452.00
18.7704 1611.00
18.8356 1607.00
18.9008 1643.00
18.966 1750.00
19.0312 1823.00
19.0964 1681.00
19.1616 1515.00
19.2268 1553.00
19.292 1443.00
19.3572 1504.00
19.4224 1397.00
19.4876 1430.00
19.5528 1384.00
19.618 1474.00
19.6832 1348.00
19.7484 1410.00
19.8136 1315.00
19.8788 1268.00
19.944 1327.00
20.0092 1304.00
20.0744 1297.00
20.1396 1396.00
20.2048 1363.00
20.27 1328.00
20.3352 1297.00
20.4004 1288.00
20.4656 1323.00
20.5308 1308.00
20.596 1338.00
20.6612 1311.00
20.7264 1318.00
20.7916 1362.00
20.8568 1282.00
20.922 1279.00
20.9872 1339.00
21.0524 1300.00
21.1176 1348.00
21.1828 1319.00
21.248 1282.00
21.3132 1299.00
21.3784 1342.00
21.4436 1470.00
21.5088 1532.00
21.574 1821.00
21.6392 2354.00
21.7044 3034.00
21.7696 2310.00
21.8348 1519.00
21.9 1377.00
21.9652 1297.00
22.0304 1292.00
22.0956 1269.00
22.1608 1241.00
22.226 1224.00
22.2912 1209.00
22.3564 1279.00
22.4216 1226.00
22.4868 1169.00
22.552 1228.00
22.6172 1243.00
22.6824 1229.00
22.7476 1179.00
22.8128 1233.00
22.878 1250.00
22.9432 1213.00
23.0084 1268.00
23.0736 1290.00
23.1388 1285.00
23.204 1303.00
23.2692 1176.00
23.3344 1318.00
23.3996 1317.00
23.4647 1439.00
23.5299 1608.00
23.5951 1998.00
23.6603 2206.00
23.7255 1937.00
23.7907 1644.00
23.8559 1463.00
23.9211 1273.00
23.9863 1238.00
24.0515 1170.00
24.1167 1193.00
24.1819 1224.00
24.2471 1147.00
24.3123 1170.00
24.3775 1214.00
24.4427 1308.00
24.5079 1420.00
24.5731 1851.00
24.6383 2342.00
24.7035 2652.00
24.7687 1923.00
24.8339 1384.00
24.8991 1320.00
24.9643 1340.00
25.0295 1279.00
25.0947 1254.00
25.1599 1156.00
25.2251 1165.00
25.2903 1064.00
25.3555 1127.00
25.4207 1139.00
25.4859 1130.00
25.5511 1164.00
25.6163 1119.00
25.6815 1118.00
25.7467 1180.00
25.8119 1235.00
25.8771 1105.00
25.9423 1154.00
26.0075 1170.00
26.0727 1255.00
26.1379 1337.00
26.2031 1566.00
26.2683 1551.00
26.3335 1268.00
26.3987 1234.00
26.4639 1266.00
26.5291 1382.00
26.5943 1670.00
26.6595 2180.00
26.7247 2615.00
26.7899 2674.00
26.8551 2000.00
26.9203 1648.00
26.9855 1450.00
27.0507 1341.00
27.1159 1320.00
27.1811 1242.00
27.2463 1257.00
27.3115 1221.00
27.3767 1273.00
27.4419 1166.00
27.5071 1168.00
27.5723 1211.00
27.6375 1182.00
27.7027 1321.00
27.7679 1308.00
27.8331 1623.00
27.8983 1857.00
27.9635 2231.00
28.0287 2507.00
28.0939 2453.00
28.1591 2458.00
28.2243 2285.00
28.2894 2175.00
28.3546 2017.00
28.4198 1897.00
28.485 2042.00
28.5502 2382.00
28.6154 3512.00
28.6806 5092.00
28.7458 4486.00
28.811 2795.00
28.8762 1877.00
28.9414 1451.00
29.0066 1368.00
29.0718 1371.00
29.137 1312.00
29.2022 1336.00
29.2674 1399.00
29.3326 1337.00
29.3978 1348.00
29.463 1461.00
29.5282 1531.00
29.5934 1747.00
29.6586 1665.00
29.7238 1706.00
29.789 1773.00
29.8542 1771.00
29.9194 1372.00
29.9846 1194.00
30.0498 1071.00
30.115 1105.00
30.1802 1130.00
30.2454 1144.00
30.3106 1196.00
30.3758 1363.00
30.441 1402.00
30.5062 1422.00
30.5714 1518.00
30.6366 1584.00
30.7018 1651.00
30.767 1798.00
30.8322 2022.00
30.8974 2609.00
30.9626 3536.00
31.0278 3778.00
31.093 3322.00
31.1582 2410.00
31.2234 1779.00
31.2886 1418.00
31.3538 1296.00
31.419 1217.00
31.4842 1147.00
31.5494 1091.00
31.6146 1136.00
31.6798 1150.00
31.745 1068.00
31.8102 1036.00
31.8754 1067.00
31.9406 1245.00
32.0058 1460.00
32.071 2295.00
32.1362 3179.00
32.2014 2712.00
32.2666 1892.00
32.3318 1274.00
32.397 1053.00
32.4622 1065.00
32.5274 1011.00
32.5926 1012.00
32.6578 1025.00
32.723 981.00
32.7882 1059.00
32.8534 1017.00
32.9186 1046.00
32.9838 1116.00
33.0489 1294.00
33.1141 1346.00
33.1793 1539.00
33.2445 1773.00
33.3097 2359.00
33.3749 3000.00
33.4401 2638.00
33.5053 1905.00
33.5705 1344.00
33.6357 1076.00
33.7009 989.00
33.7661 930.00
33.8313 941.00
33.8965 906.00
33.9617 886.00
34.0269 854.00
34.0921 899.00
34.1573 952.00
34.2225 925.00
34.2877 953.00
34.3529 1105.00
34.4181 1479.00
34.4833 1807.00
34.5485 1531.00
34.6137 1121.00
34.6789 969.00
34.7441 879.00
34.8093 881.00
34.8745 949.00
34.9397 945.00
35.0049 953.00
35.0701 868.00
35.1353 863.00
35.2005 842.00
35.2657 880.00
35.3309 826.00
35.3961 863.00
35.4613 822.00
35.5265 840.00
35.5917 870.00
35.6569 861.00
35.7221 907.00
35.7873 932.00
35.8525 991.00
35.9177 977.00
35.9829 1010.00
36.0481 976.00
36.1133 872.00
36.1785 897.00
36.2437 961.00
36.3089 1064.00
36.3741 1375.00
36.4393 2054.00
36.5045 2182.00
36.5697 2339.00
36.6349 2066.00
36.7001 1569.00
36.7653 1171.00
36.8305 1023.00
36.8957 1037.00
36.9609 993.00
37.0261 1066.00
37.0913 1130.00
37.1565 1213.00
37.2217 1408.00
37.2869 1736.00
37.3521 1820.00
37.4173 1717.00
37.4825 1390.00
37.5477 1178.00
37.6129 1086.00
37.6781 1017.00
37.7433 980.00
37.8085 962.00
37.8736 958.00
37.9388 850.00
38.004 855.00
38.0692 843.00
38.1344 839.00
38.1996 847.00
38.2648 873.00
38.33 786.00
38.3952 789.00
38.4604 822.00
38.5256 767.00
38.5908 779.00
38.656 785.00
38.7212 736.00
38.7864 787.00
38.8516 809.00
38.9168 850.00
38.982 846.00
39.0472 778.00
39.1124 826.00
39.1776 802.00
39.2428 745.00
39.308 813.00
39.3732 758.00
39.4384 834.00
39.5036 957.00
39.5688 1081.00
39.634 1109.00
39.6992 1014.00
39.7644 934.00
39.8296 1002.00
39.8948 1264.00
39.96 1342.00
40.0252 1143.00
40.0904 972.00
40.1556 936.00
40.2208 1022.00
40.286 1076.00
40.3512 925.00
40.4164 914.00
40.4816 842.00
40.5468 810.00
40.612 893.00
40.6772 814.00
40.7424 809.00
40.8076 832.00
40.8728 839.00
40.938 891.00
41.0032 906.00
41.0684 906.00
41.1336 941.00
41.1988 1120.00
41.264 1568.00
41.3292 1977.00
41.3944 1777.00
41.4596 1601.00
41.5248 1477.00
41.59 1442.00
41.6552 1281.00
41.7204 1006.00
41.7856 936.00
41.8508 909.00
41.916 878.00
41.9812 915.00
42.0464 884.00
42.1116 951.00
42.1768 1015.00
42.242 1137.00
42.3072 1222.00
42.3724 1617.00
42.4376 1770.00
42.5028 1606.00
42.568 1405.00
42.6332 1178.00
42.6983 991.00
42.7635 924.00
42.8287 875.00
42.8939 932.00
42.9591 872.00
43.0243 871.00
43.0895 858.00
43.1547 814.00
43.2199 725.00
43.2851 717.00
43.3503 725.00
43.4155 681.00
43.4807 694.00
43.5459 663.00
43.6111 723.00
43.6763 723.00
43.7415 788.00
43.8067 930.00
43.8719 806.00
43.9371 742.00
44.0023 720.00
44.0675 672.00
44.1327 694.00
44.1979 709.00
44.2631 736.00
44.3283 768.00
44.3935 723.00
44.4587 807.00
44.5239 834.00
44.5891 918.00
44.6543 915.00
44.7195 877.00
44.7847 856.00
44.8499 761.00
44.9151 778.00
44.9803 716.00
45.0455 710.00
45.1107 697.00
45.1759 679.00
45.2411 725.00
45.3063 727.00
45.3715 743.00
45.4367 706.00
45.5019 725.00
45.5671 700.00
45.6323 727.00
45.6975 692.00
45.7627 764.00
45.8279 698.00
45.8931 741.00
45.9583 723.00
46.0235 847.00
46.0887 897.00
46.1539 832.00
46.2191 929.00
46.2843 894.00
46.3495 779.00
46.4147 766.00
46.4799 771.00
46.5451 709.00
46.6103 741.00
46.6755 664.00
46.7407 677.00
46.8059 602.00
46.8711 670.00
46.9363 717.00
47.0015 630.00
47.0667 687.00
47.1319 644.00
47.1971 683.00
47.2623 705.00
47.3275 703.00
47.3927 649.00
47.4579 675.00
47.523 676.00
47.5882 647.00
47.6534 664.00
47.7186 664.00
47.7838 700.00
47.849 712.00
47.9142 706.00
47.9794 709.00
48.0446 671.00
48.1098 692.00
48.175 672.00
48.2402 682.00
48.3054 714.00
48.3706 642.00
48.4358 740.00
48.501 712.00
48.5662 784.00
48.6314 729.00
48.6966 757.00
48.7618 715.00
48.827 742.00
48.8922 716.00
48.9574 825.00
49.0226 965.00
49.0878 1065.00
49.153 1112.00
49.2182 1095.00
49.2834 967.00
49.3486 977.00
49.4138 790.00
49.479 762.00
49.5442 735.00
49.6094 747.00
49.6746 776.00
49.7398 718.00
49.805 754.00
49.8702 722.00
49.9354 773.00
50.0006 826.00
50.0658 1018.00
50.131 1153.00
50.1962 1135.00
50.2614 1115.00
50.3266 897.00
50.3918 764.00
50.457 729.00
50.5222 743.00
50.5874 755.00
50.6526 831.00
50.7178 942.00
50.783 1252.00
50.8482 1934.00
50.9134 1908.00
50.9786 1727.00
51.0438 1430.00
51.109 1021.00
51.1742 812.00
51.2394 751.00
51.3046 658.00
51.3698 648.00
51.435 631.00
51.5002 640.00
51.5654 637.00
51.6306 659.00
51.6958 684.00
51.761 677.00
51.8262 714.00
51.8914 669.00
51.9566 686.00
52.0218 710.00
52.087 776.00
52.1522 731.00
52.2174 669.00
52.2826 698.00
52.3477 689.00
52.4129 699.00
52.4781 676.00
52.5433 724.00
52.6085 703.00
52.6737 730.00
52.7389 701.00
52.8041 644.00
52.8693 704.00
52.9345 802.00
52.9997 848.00
53.0649 835.00
53.1301 801.00
53.1953 764.00
53.2605 666.00
53.3257 706.00
53.3909 685.00
53.4561 658.00
53.5213 687.00
53.5865 707.00
53.6517 672.00
53.7169 658.00
53.7821 640.00
53.8473 665.00
53.9125 731.00
53.9777 727.00
54.0429 761.00
54.1081 916.00
54.1733 1325.00
54.2385 1748.00
54.3037 1994.00
54.3689 1923.00
54.4341 1675.00
54.4993 1346.00
54.5645 1032.00
54.6297 906.00
54.6949 779.00
54.7601 752.00
54.8253 751.00
54.8905 738.00
54.9557 746.00
55.0209 745.00
55.0861 694.00
55.1513 747.00
55.2165 785.00
55.2817 791.00
55.3469 852.00
55.4121 855.00
55.4773 912.00
55.5425 949.00
55.6077 962.00
55.6729 981.00
55.7381 1055.00
55.8033 1048.00
55.8685 1010.00
55.9337 989.00
55.9989 999.00
56.0641 885.00
56.1293 842.00
56.1945 776.00
56.2597 757.00
56.3249 697.00
56.3901 755.00
56.4553 713.00
56.5205 717.00
56.5857 772.00
56.6509 848.00
56.7161 802.00
56.7813 761.00
56.8465 831.00
56.9117 912.00
56.9769 892.00
57.042 922.00
57.1073 1005.00
57.1724 841.00
57.2376 873.00
57.3028 801.00
57.368 756.00
57.4332 704.00
57.4984 673.00
57.5636 762.00
57.6288 744.00
57.694 746.00
57.7592 717.00
57.8244 763.00
57.8896 697.00
57.9548 773.00
58.02 889.00
58.0852 847.00
58.1504 768.00
58.2156 724.00
58.2808 717.00
58.346 674.00
58.4112 728.00
58.4764 685.00
58.5416 774.00
58.6068 719.00
58.672 755.00
58.7372 820.00
58.8024 811.00
58.8676 818.00
58.9328 827.00
58.998 798.00
59.0632 761.00
59.1284 766.00
59.1936 745.00
59.2588 759.00
59.324 803.00
59.3892 753.00
59.4544 711.00
59.5196 755.00
59.5848 679.00
59.65 676.00
59.7152 653.00
59.7804 679.00
59.8456 711.00
59.9108 718.00
59.976 797.00
60.0412 926.00
60.1064 939.00
60.1716 818.00
60.2368 880.00
60.302 787.00
60.3672 838.00
60.4324 830.00
60.4976 1086.00
60.5628 1284.00
60.628 1377.00
60.6932 1221.00
60.7584 1147.00
60.8236 1076.00
60.8888 909.00
60.954 904.00
61.0192 826.00
61.0844 857.00
61.1496 859.00
61.2148 739.00
61.28 766.00
61.3452 756.00
61.4104 825.00
61.4756 783.00
61.5408 780.00
61.606 732.00
61.6712 733.00
61.7364 747.00
61.8016 756.00
61.8667 752.00
61.932 786.00
61.9971 746.00
62.0623 748.00
62.1275 961.00
62.1927 969.00
62.2579 949.00
62.3231 875.00
62.3883 821.00
62.4535 806.00
62.5187 752.00
62.5839 752.00
62.6491 687.00
62.7143 706.00
62.7795 723.00
62.8447 759.00
62.9099 647.00
62.9751 683.00
63.0403 676.00
63.1055 684.00
63.1707 741.00
63.2359 764.00
63.3011 855.00
63.3663 935.00
63.4315 1040.00
63.4967 980.00
63.5619 977.00
63.6271 912.00
63.6923 847.00
63.7575 733.00
63.8227 770.00
63.8879 712.00
63.9531 729.00
64.0183 660.00
64.0835 703.00
64.1487 642.00
64.2139 716.00
64.2791 700.00
64.3443 674.00
64.4095 643.00
64.4747 694.00
64.5399 620.00
64.6051 722.00
64.6703 625.00
64.7355 677.00
64.8007 684.00
64.8659 726.00
64.9311 729.00
64.9963 733.00
65.0615 744.00
65.1267 784.00
65.1919 843.00
65.2571 923.00
65.3223 1072.00
65.3875 1139.00
65.4527 1177.00
65.5179 1186.00
65.5831 1020.00
65.6483 972.00
65.7135 925.00
65.7787 875.00
65.8439 723.00
65.9091 727.00
65.9743 773.00
66.0395 611.00
66.1047 608.00
66.1699 680.00
66.2351 669.00
66.3003 625.00
66.3655 642.00
66.4307 632.00
66.4959 635.00
66.561 602.00
66.6263 638.00
66.6915 620.00
66.7566 630.00
66.8218 617.00
66.887 623.00
66.9522 648.00
67.0174 680.00
67.0826 723.00
67.1478 739.00
67.213 843.00
67.2782 971.00
67.3434 980.00
67.4086 797.00
67.4738 805.00
67.539 819.00
67.6042 655.00
67.6694 672.00
67.7346 636.00
67.7998 714.00
67.865 718.00
67.9302 722.00
67.9954 810.00
68.0606 875.00
68.1258 891.00
68.191 819.00
68.2562 796.00
68.3214 735.00
68.3866 744.00
68.4518 698.00
68.517 697.00
68.5822 653.00
68.6474 690.00
68.7126 699.00
68.7778 647.00
68.843 659.00
68.9082 627.00
68.9734 618.00
69.0386 645.00
69.1038 581.00
69.169 603.00
69.2342 543.00
69.2994 568.00
69.3646 577.00
69.4298 629.00
69.495 605.00
69.5602 564.00
69.6254 593.00
69.6906 627.00
69.7558 649.00
69.821 663.00
69.8862 695.00
69.9514 670.00
70.0166 613.00
70.0818 645.00
70.147 654.00
70.2122 625.00
70.2774 605.00
70.3426 612.00
70.4078 638.00
70.473 653.00
70.5382 649.00
70.6034 677.00
70.6686 654.00
70.7338 717.00
70.799 781.00
70.8642 750.00
70.9294 818.00
70.9946 835.00
71.0598 854.00
71.125 820.00
71.1902 839.00
71.2554 762.00
71.3205 726.00
71.3858 685.00
71.451 643.00
71.5162 669.00
71.5813 595.00
71.6465 606.00
71.7117 635.00
71.7769 622.00
71.8421 570.00
71.9073 608.00
71.9725 731.00
72.0377 619.00
72.1029 646.00
72.1681 635.00
72.2333 661.00
72.2985 659.00
72.3637 629.00
72.4289 584.00
72.4941 610.00
72.5593 578.00
72.6245 616.00
72.6897 588.00
72.7549 567.00
72.8201 594.00
72.8853 576.00
72.9505 518.00
73.0157 583.00
73.0809 541.00
73.1461 609.00
73.2113 676.00
73.2765 647.00
73.3417 589.00
73.4069 583.00
73.4721 605.00
73.5373 587.00
73.6025 542.00
73.6677 509.00
73.7329 568.00
73.7981 604.00
73.8633 541.00
73.9285 564.00
73.9937 651.00
74.0589 626.00
74.1241 598.00
74.1893 631.00
74.2545 691.00
74.3197 602.00
74.3849 577.00
74.4501 600.00
74.5153 636.00
74.5805 572.00
74.6457 600.00
74.7109 605.00
74.7761 612.00
74.8413 585.00
74.9065 552.00
74.9717 535.00
75.0369 549.00
75.1021 606.00
75.1673 553.00
75.2325 537.00
75.2977 573.00
75.3629 622.00
75.4281 569.00
75.4933 584.00
75.5585 567.00
75.6237 583.00
75.6889 571.00
75.7541 590.00
75.8193 561.00
75.8845 590.00
75.9497 584.00
76.0149 573.00
76.0801 517.00
76.1452 540.00
76.2104 655.00
76.2756 611.00
76.3409 608.00
76.406 595.00
76.4712 606.00
76.5364 627.00
76.6016 680.00
76.6668 641.00
76.732 555.00
76.7972 617.00
76.8624 588.00
76.9276 629.00
76.9928 602.00
77.058 577.00
77.1232 613.00
77.1884 610.00
77.2536 621.00
77.3188 624.00
77.384 632.00
77.4492 591.00
77.5144 578.00
77.5796 586.00
77.6448 594.00
77.71 594.00
77.7752 599.00
77.8404 553.00
77.9056 525.00
77.9708 583.00
78.036 609.00
78.1012 549.00
78.1664 582.00
78.2316 584.00
78.2968 614.00
78.362 612.00
78.4272 642.00
78.4924 642.00
78.5576 666.00
78.6228 605.00
78.688 640.00
78.7532 585.00
78.8184 561.00
78.8836 591.00
78.9488 525.00
79.014 570.00
79.0792 558.00
79.1444 568.00
79.2096 546.00
79.2748 568.00
79.34 553.00
79.4052 507.00
79.4704 586.00
79.5356 538.00
79.6008 508.00
79.666 533.00
79.7312 551.00
79.7964 504.00
79.8616 558.00
79.9268 553.00
79.992 593.00
80.0572 587.00
80.1224 568.00
80.1876 509.00
80.2528 619.00
80.318 542.00
80.3832 599.00
80.4484 570.00
80.5136 603.00
80.5788 591.00
80.644 504.00
80.7092 495.00
80.7744 545.00
80.8396 540.00
80.9048 555.00
80.9699 520.00
81.0351 557.00
81.1003 548.00
81.1655 556.00
81.2307 541.00
81.2959 575.00
81.3611 518.00
81.4263 557.00
81.4915 591.00
81.5567 653.00
81.6219 591.00
81.6871 627.00
81.7523 556.00
81.8175 617.00
81.8827 597.00
81.9479 547.00
82.0131 581.00
82.0783 553.00
82.1435 560.00
82.2087 584.00
82.2739 579.00
82.3391 663.00
82.4043 642.00
82.4695 662.00
82.5347 664.00
82.5999 726.00
82.6651 622.00
82.7303 594.00
82.7955 625.00
82.8607 587.00
82.9259 601.00
82.9911 580.00
83.0563 520.00
83.1215 579.00
83.1867 551.00
83.2519 499.00
83.3171 587.00
83.3823 556.00
83.4475 582.00
83.5127 610.00
83.5779 561.00
83.6431 598.00
83.7083 551.00
83.7735 571.00
83.8387 614.00
83.9039 542.00
83.9691 562.00
84.0343 583.00
84.0995 618.00
84.1647 644.00
84.2299 563.00
84.2951 558.00
84.3603 586.00
84.4255 522.00
84.4907 592.00
84.5559 549.00
84.6211 568.00
84.6863 536.00
84.7515 600.00
84.8167 575.00
84.8819 607.00
84.9471 577.00
85.0123 599.00
85.0775 552.00
85.1427 564.00
85.2079 568.00
85.2731 566.00
85.3383 526.00
85.4035 545.00
85.4687 536.00
85.5339 607.00
85.5991 577.00
85.6643 533.00
85.7295 569.00
85.7946 521.00
85.8598 605.00
85.925 576.00
85.9903 682.00
86.0554 623.00
86.1206 536.00
86.1858 624.00
86.251 602.00
86.3162 668.00
86.3814 572.00
86.4466 631.00
86.5118 639.00
86.577 643.00
86.6422 669.00
86.7074 597.00
86.7726 685.00
86.8378 627.00
86.903 681.00
86.9682 594.00
87.0334 600.00
87.0986 578.00
87.1638 614.00
87.229 565.00
87.2942 556.00
87.3594 555.00
87.4246 577.00
87.4898 547.00
87.555 555.00
87.6202 573.00
87.6854 553.00
87.7506 559.00
87.8158 574.00
87.881 632.00
87.9462 582.00
88.0114 576.00
88.0766 594.00
88.1418 622.00
88.207 578.00
88.2722 561.00
88.3374 573.00
88.4026 560.00
88.4678 629.00
88.533 573.00
88.5982 560.00
88.6634 561.00
88.7286 594.00
88.7938 557.00
88.859 534.00
88.9242 543.00
88.9894 575.00
89.0546 580.00
89.1198 584.00
89.185 530.00
89.2502 564.00
89.3154 600.00
89.3806 531.00
89.4458 535.00
89.511 589.00
89.5762 583.00
89.6414 620.00
89.7066 664.00
89.7718 628.00
89.837 630.00
89.9022 664.00
89.9674 615.00
90.0326 574.00
90.0978 608.00
90.163 591.00
90.2282 608.00
90.2934 542.00
90.3586 595.00
90.4238 518.00
90.489 506.00
90.5542 521.00
90.6193 523.00
90.6845 543.00
90.7497 568.00
90.8149 546.00
90.8801 506.00
90.9453 488.00
91.0105 513.00
91.0757 512.00
91.1409 521.00
91.2061 538.00
91.2713 555.00
91.3365 513.00
91.4017 500.00
91.4669 474.00
91.5321 585.00
91.5973 516.00
91.6625 511.00
91.7277 546.00
91.7929 543.00
91.8581 549.00
91.9233 587.00
91.9885 544.00
92.0537 558.00
92.1189 539.00
92.1841 561.00
92.2493 548.00
92.3145 524.00
92.3797 572.00
92.4449 557.00
92.5101 564.00
92.5753 637.00
92.6405 658.00
92.7057 544.00
92.7709 590.00
92.8361 575.00
92.9013 570.00
92.9665 557.00
93.0317 555.00
93.0969 566.00
93.1621 550.00
93.2273 590.00
93.2925 595.00
93.3577 567.00
93.4229 650.00
93.4881 669.00
93.5533 620.00
93.6185 624.00
93.6837 632.00
93.7489 630.00
93.8141 655.00
93.8793 640.00
93.9445 625.00
94.0097 599.00
94.0749 596.00
94.1401 592.00
94.2053 574.00
94.2705 540.00
94.3357 586.00
94.4009 595.00
94.4661 576.00
94.5313 582.00
94.5965 539.00
94.6617 627.00
94.7269 566.00
94.7921 503.00
94.8573 510.00
94.9225 521.00
94.9877 555.00
95.0529 588.00
95.1181 581.00
95.1833 553.00
95.2485 607.00
95.3137 507.00
95.3789 535.00
95.444 504.00
95.5092 533.00
95.5744 553.00
95.6396 587.00
95.7048 556.00
95.77 573.00
95.8352 562.00
95.9004 543.00
95.9656 529.00
96.0308 519.00
96.096 585.00
96.1612 537.00
96.2264 546.00
96.2916 564.00
96.3568 570.00
96.422 541.00
96.4872 576.00
96.5524 512.00
96.6176 543.00
96.6828 567.00
96.748 531.00
96.8132 524.00
96.8784 584.00
96.9436 590.00
97.0088 650.00
97.074 604.00
97.1392 601.00
97.2044 634.00
97.2696 578.00
97.3348 589.00
97.4 573.00
97.4652 580.00
97.5304 559.00
97.5956 594.00
97.6608 587.00
97.726 562.00
97.7912 563.00
97.8564 573.00
97.9216 588.00
97.9868 548.00
98.052 532.00
98.1172 554.00
98.1824 562.00
98.2476 542.00
98.3128 542.00
98.378 527.00
98.4432 512.00
98.5084 557.00
98.5736 535.00
98.6388 534.00
98.704 518.00
98.7692 559.00
98.8344 541.00
98.8996 571.00
98.9648 558.00
99.03 512.00
99.0952 574.00
99.1604 580.00
99.2256 586.00
99.2908 597.00
99.356 564.00
99.4212 561.00
99.4864 603.00
99.5516 554.00
99.6168 524.00
99.682 528.00
99.7472 580.00
99.8124 560.00
99.8776 541.00
99.9428 545.00
100.008 539.00
100.073 499.00
100.095 504.00