File: data/xrd_creation/results/PG_2151-1.xy
9.903433 2526.00
9.968632 2437.00
10.0338 2573.00
10.099 2514.00
10.1642 2468.00
10.2294 2406.00
10.2946 2350.00
10.3598 2431.00
10.425 2282.00
10.4902 2420.00
10.5554 2287.00
10.6206 2318.00
10.6858 2271.00
10.751 2296.00
10.8162 2182.00
10.8814 2216.00
10.9466 2152.00
11.0118 2221.00
11.077 2107.00
11.1422 2190.00
11.2074 2131.00
11.2726 2097.00
11.3378 2095.00
11.403 2014.00
11.4682 2109.00
11.5334 2111.00
11.5986 2105.00
11.6638 2025.00
11.729 2044.00
11.7942 1987.00
11.8594 2000.00
11.9246 2022.00
11.9898 2048.00
12.055 1927.00
12.1202 1900.00
12.1854 1891.00
12.2506 1916.00
12.3158 1867.00
12.381 1846.00
12.4462 1880.00
12.5114 1791.00
12.5766 1858.00
12.6418 1876.00
12.707 1802.00
12.7722 1859.00
12.8374 1876.00
12.9026 1766.00
12.9678 1687.00
13.033 1835.00
13.0982 1716.00
13.1634 1812.00
13.2286 1768.00
13.2938 1752.00
13.359 1705.00
13.4242 1720.00
13.4894 1742.00
13.5546 1635.00
13.6198 1694.00
13.685 1684.00
13.7502 1666.00
13.8154 1704.00
13.8805 1648.00
13.9457 1645.00
14.0109 1658.00
14.0761 1644.00
14.1413 1650.00
14.2065 1638.00
14.2717 1620.00
14.3369 1636.00
14.4021 1599.00
14.4673 1496.00
14.5325 1700.00
14.5977 1640.00
14.6629 1556.00
14.7281 1541.00
14.7933 1577.00
14.8585 1639.00
14.9237 1589.00
14.9889 1589.00
15.0541 1587.00
15.1193 1570.00
15.1845 1572.00
15.2497 1685.00
15.3149 1785.00
15.3801 1743.00
15.4453 1753.00
15.5105 1957.00
15.5757 2125.00
15.6409 2434.00
15.7061 2834.00
15.7713 3647.00
15.8365 4945.00
15.9017 6656.00
15.9669 9040.00
16.0321 10651.00
16.0973 8583.00
16.1625 5221.00
16.2277 3323.00
16.2929 2586.00
16.3581 2255.00
16.4233 2014.00
16.4885 1785.00
16.5537 1669.00
16.6189 1624.00
16.6841 1646.00
16.7493 1575.00
16.8145 1526.00
16.8797 1578.00
16.9449 1414.00
17.0101 1484.00
17.0753 1505.00
17.1405 1444.00
17.2057 1460.00
17.2709 1428.00
17.3361 1388.00
17.4013 1401.00
17.4665 1397.00
17.5317 1441.00
17.5969 1363.00
17.6621 1309.00
17.7273 1401.00
17.7925 1355.00
17.8577 1378.00
17.9229 1318.00
17.9881 1377.00
18.0533 1322.00
18.1185 1284.00
18.1837 1388.00
18.2489 1347.00
18.3141 1313.00
18.3793 1317.00
18.4445 1288.00
18.5097 1298.00
18.5749 1328.00
18.6401 1300.00
18.7052 1282.00
18.7704 1245.00
18.8356 1247.00
18.9008 1215.00
18.966 1193.00
19.0312 1186.00
19.0964 1262.00
19.1616 1166.00
19.2268 1227.00
19.292 1210.00
19.3572 1163.00
19.4224 1176.00
19.4876 1170.00
19.5528 1120.00
19.618 1100.00
19.6832 1214.00
19.7484 1185.00
19.8136 1199.00
19.8788 1083.00
19.944 1092.00
20.0092 1133.00
20.0744 1133.00
20.1396 1109.00
20.2048 1080.00
20.27 1051.00
20.3352 1142.00
20.4004 1032.00
20.4656 1118.00
20.5308 1119.00
20.596 1084.00
20.6612 1096.00
20.7264 1060.00
20.7916 1101.00
20.8568 1130.00
20.922 1149.00
20.9872 1123.00
21.0524 1052.00
21.1176 1083.00
21.1828 1074.00
21.248 1093.00
21.3132 1031.00
21.3784 1000.00
21.4436 1077.00
21.5088 1025.00
21.574 1070.00
21.6392 994.00
21.7044 1073.00
21.7696 1094.00
21.8348 1048.00
21.9 1047.00
21.9652 1019.00
22.0304 963.00
22.0956 991.00
22.1608 999.00
22.226 949.00
22.2912 1011.00
22.3564 962.00
22.4216 969.00
22.4868 975.00
22.552 919.00
22.6172 1009.00
22.6824 965.00
22.7476 962.00
22.8128 963.00
22.878 972.00
22.9432 953.00
23.0084 949.00
23.0736 951.00
23.1388 971.00
23.204 917.00
23.2692 962.00
23.3344 947.00
23.3996 916.00
23.4647 895.00
23.5299 926.00
23.5951 952.00
23.6603 944.00
23.7255 893.00
23.7907 969.00
23.8559 922.00
23.9211 923.00
23.9863 939.00
24.0515 889.00
24.1167 934.00
24.1819 917.00
24.2471 894.00
24.3123 902.00
24.3775 912.00
24.4427 951.00
24.5079 877.00
24.5731 905.00
24.6383 918.00
24.7035 904.00
24.7687 875.00
24.8339 881.00
24.8991 914.00
24.9643 825.00
25.0295 890.00
25.0947 900.00
25.1599 905.00
25.2251 872.00
25.2903 879.00
25.3555 881.00
25.4207 896.00
25.4859 858.00
25.5511 867.00
25.6163 898.00
25.6815 870.00
25.7467 835.00
25.8119 862.00
25.8771 871.00
25.9423 872.00
26.0075 908.00
26.0727 856.00
26.1379 860.00
26.2031 843.00
26.2683 860.00
26.3335 887.00
26.3987 741.00
26.4639 913.00
26.5291 840.00
26.5943 908.00
26.6595 879.00
26.7247 937.00
26.7899 998.00
26.8551 1001.00
26.9203 1038.00
26.9855 1032.00
27.0507 1073.00
27.1159 1135.00
27.1811 1231.00
27.2463 1428.00
27.3115 1695.00
27.3767 2188.00
27.4419 3054.00
27.5071 4656.00
27.5723 6876.00
27.6375 8421.00
27.7027 8170.00
27.7679 6040.00
27.8331 4059.00
27.8983 2884.00
27.9635 2589.00
28.0287 2485.00
28.0939 2961.00
28.1591 4210.00
28.2243 6472.00
28.2894 9270.00
28.3546 11053.00
28.4198 9620.00
28.485 6175.00
28.5502 3793.00
28.6154 2452.00
28.6806 1929.00
28.7458 1521.00
28.811 1305.00
28.8762 1122.00
28.9414 1038.00
29.0066 979.00
29.0718 929.00
29.137 935.00
29.2022 950.00
29.2674 883.00
29.3326 790.00
29.3978 834.00
29.463 812.00
29.5282 822.00
29.5934 811.00
29.6586 786.00
29.7238 784.00
29.789 802.00
29.8542 772.00
29.9194 784.00
29.9846 791.00
30.0498 756.00
30.115 714.00
30.1802 833.00
30.2454 761.00
30.3106 755.00
30.3758 727.00
30.441 697.00
30.5062 742.00
30.5714 711.00
30.6366 728.00
30.7018 718.00
30.767 788.00
30.8322 725.00
30.8974 793.00
30.9626 762.00
31.0278 734.00
31.093 739.00
31.1582 794.00
31.2234 778.00
31.2886 809.00
31.3538 847.00
31.419 828.00
31.4842 819.00
31.5494 890.00
31.6146 939.00
31.6798 988.00
31.745 1239.00
31.8102 1613.00
31.8754 2118.00
31.9406 2862.00
32.0058 3344.00
32.071 4139.00
32.1362 5819.00
32.2014 4378.00
32.2666 2410.00
32.3318 1195.00
32.397 981.00
32.4622 815.00
32.5274 763.00
32.5926 734.00
32.6578 698.00
32.723 665.00
32.7882 673.00
32.8534 656.00
32.9186 731.00
32.9838 652.00
33.0489 673.00
33.1141 663.00
33.1793 678.00
33.2445 676.00
33.3097 675.00
33.3749 713.00
33.4401 621.00
33.5053 645.00
33.5705 633.00
33.6357 655.00
33.7009 600.00
33.7661 645.00
33.8313 613.00
33.8965 647.00
33.9617 652.00
34.0269 588.00
34.0921 597.00
34.1573 670.00
34.2225 677.00
34.2877 699.00
34.3529 563.00
34.4181 669.00
34.4833 650.00
34.5485 711.00
34.6137 804.00
34.6789 1288.00
34.7441 2358.00
34.8093 3921.00
34.8745 2498.00
34.9397 1276.00
35.0049 742.00
35.0701 657.00
35.1353 706.00
35.2005 650.00
35.2657 619.00
35.3309 624.00
35.3961 634.00
35.4613 623.00
35.5265 598.00
35.5917 616.00
35.6569 607.00
35.7221 648.00
35.7873 647.00
35.8525 682.00
35.9177 699.00
35.9829 684.00
36.0481 730.00
36.1133 813.00
36.1785 868.00
36.2437 1065.00
36.3089 1286.00
36.3741 1534.00
36.4393 1771.00
36.5045 2588.00
36.5697 5133.00
36.6349 8169.00
36.7001 5293.00
36.7653 2933.00
36.8305 1064.00
36.8957 862.00
36.9609 790.00
37.0261 665.00
37.0913 643.00
37.1565 606.00
37.2217 607.00
37.2869 610.00
37.3521 584.00
37.4173 523.00
37.4825 578.00
37.5477 567.00
37.6129 540.00
37.6781 585.00
37.7433 580.00
37.8085 538.00
37.8736 589.00
37.9388 583.00
38.004 592.00
38.0692 538.00
38.1344 535.00
38.1996 542.00
38.2648 531.00
38.33 538.00
38.3952 559.00
38.4604 599.00
38.5256 591.00
38.5908 591.00
38.656 621.00
38.7212 581.00
38.7864 602.00
38.8516 612.00
38.9168 624.00
38.982 624.00
39.0472 677.00
39.1124 686.00
39.1776 744.00
39.2428 827.00
39.308 873.00
39.3732 978.00
39.4384 1148.00
39.5036 1421.00
39.5688 1907.00
39.634 2738.00
39.6992 4210.00
39.7644 5947.00
39.8296 7399.00
39.8948 7050.00
39.96 5436.00
40.0252 3732.00
40.0904 2609.00
40.1556 1834.00
40.2208 1357.00
40.286 1064.00
40.3512 937.00
40.4164 837.00
40.4816 663.00
40.5468 730.00
40.612 650.00
40.6772 624.00
40.7424 609.00
40.8076 553.00
40.8728 578.00
40.938 545.00
41.0032 604.00
41.0684 553.00
41.1336 544.00
41.1988 543.00
41.264 570.00
41.3292 506.00
41.3944 572.00
41.4596 506.00
41.5248 524.00
41.59 522.00
41.6552 534.00
41.7204 568.00
41.7856 552.00
41.8508 545.00
41.916 544.00
41.9812 533.00
42.0464 547.00
42.1116 586.00
42.1768 579.00
42.242 652.00
42.3072 807.00
42.3724 909.00
42.4376 1122.00
42.5028 1388.00
42.568 1654.00
42.6332 1664.00
42.6983 1468.00
42.7635 1229.00
42.8287 939.00
42.8939 796.00
42.9591 646.00
43.0243 629.00
43.0895 580.00
43.1547 531.00
43.2199 550.00
43.2851 476.00
43.3503 493.00
43.4155 509.00
43.4807 516.00
43.5459 526.00
43.6111 513.00
43.6763 492.00
43.7415 485.00
43.8067 450.00
43.8719 458.00
43.9371 447.00
44.0023 492.00
44.0675 513.00
44.1327 473.00
44.1979 495.00
44.2631 448.00
44.3283 435.00
44.3935 415.00
44.4587 450.00
44.5239 427.00
44.5891 459.00
44.6543 468.00
44.7195 471.00
44.7847 424.00
44.8499 467.00
44.9151 470.00
44.9803 462.00
45.0455 384.00
45.1107 446.00
45.1759 480.00
45.2411 466.00
45.3063 448.00
45.3715 468.00
45.4367 448.00
45.5019 420.00
45.5671 468.00
45.6323 464.00
45.6975 449.00
45.7627 478.00
45.8279 450.00
45.8931 448.00
45.9583 462.00
46.0235 464.00
46.0887 449.00
46.1539 401.00
46.2191 445.00
46.2843 497.00
46.3495 424.00
46.4147 462.00
46.4799 474.00
46.5451 458.00
46.6103 479.00
46.6755 479.00
46.7407 506.00
46.8059 526.00
46.8711 489.00
46.9363 536.00
47.0015 531.00
47.0667 522.00
47.1319 603.00
47.1971 708.00
47.2623 913.00
47.3275 1106.00
47.3927 1419.00
47.4579 1644.00
47.523 1563.00
47.5882 1275.00
47.6534 1071.00
47.7186 990.00
47.7838 1005.00
47.849 1634.00
47.9142 2267.00
47.9794 1482.00
48.0446 1606.00
48.1098 971.00
48.175 955.00
48.2402 1098.00
48.3054 1321.00
48.3706 1734.00
48.4358 2160.00
48.501 2842.00
48.5662 3341.00
48.6314 3346.00
48.6966 3325.00
48.7618 3326.00
48.827 3960.00
48.8922 4716.00
48.9574 5748.00
49.0226 5906.00
49.0878 5229.00
49.153 4228.00
49.2182 3109.00
49.2834 2219.00
49.3486 1650.00
49.4138 1321.00
49.479 1064.00
49.5442 896.00
49.6094 868.00
49.6746 694.00
49.7398 684.00
49.805 651.00
49.8702 624.00
49.9354 655.00
50.0006 698.00
50.0658 736.00
50.131 871.00
50.1962 1031.00
50.2614 1161.00
50.3266 1137.00
50.3918 1048.00
50.457 852.00
50.5222 724.00
50.5874 632.00
50.6526 569.00
50.7178 507.00
50.783 534.00
50.8482 489.00
50.9134 478.00
50.9786 469.00
51.0438 431.00
51.109 467.00
51.1742 422.00
51.2394 441.00
51.3046 405.00
51.3698 422.00
51.435 422.00
51.5002 417.00
51.5654 425.00
51.6306 396.00
51.6958 386.00
51.761 432.00
51.8262 420.00
51.8914 393.00
51.9566 388.00
52.0218 406.00
52.087 394.00
52.1522 360.00
52.2174 386.00
52.2826 390.00
52.3477 415.00
52.4129 393.00
52.4781 373.00
52.5433 382.00
52.6085 358.00
52.6737 369.00
52.7389 392.00
52.8041 413.00
52.8693 390.00
52.9345 393.00
52.9997 399.00
53.0649 422.00
53.1301 350.00
53.1953 380.00
53.2605 350.00
53.3257 379.00
53.3909 400.00
53.4561 355.00
53.5213 378.00
53.5865 363.00
53.6517 364.00
53.7169 344.00
53.7821 373.00
53.8473 432.00
53.9125 413.00
53.9777 353.00
54.0429 347.00
54.1081 363.00
54.1733 371.00
54.2385 403.00
54.3037 390.00
54.3689 379.00
54.4341 351.00
54.4993 386.00
54.5645 404.00
54.6297 394.00
54.6949 413.00
54.7601 404.00
54.8253 414.00
54.8905 426.00
54.9557 450.00
55.0209 453.00
55.0861 438.00
55.1513 488.00
55.2165 590.00
55.2817 627.00
55.3469 766.00
55.4121 936.00
55.4773 1154.00
55.5425 1573.00
55.6077 1840.00
55.6729 1757.00
55.7381 1542.00
55.8033 1411.00
55.8685 1116.00
55.9337 810.00
55.9989 742.00
56.0641 646.00
56.1293 593.00
56.1945 620.00
56.2597 648.00
56.3249 672.00
56.3901 751.00
56.4553 881.00
56.5205 1009.00
56.5857 1171.00
56.6509 1222.00
56.7161 1234.00
56.7813 1167.00
56.8465 1395.00
56.9117 2792.00
56.9769 2523.00
57.042 1617.00
57.1073 1906.00
57.1724 835.00
57.2376 614.00
57.3028 523.00
57.368 438.00
57.4332 448.00
57.4984 402.00
57.5636 392.00
57.6288 421.00
57.694 432.00
57.7592 442.00
57.8244 470.00
57.8896 464.00
57.9548 522.00
58.02 572.00
58.0852 670.00
58.1504 736.00
58.2156 739.00
58.2808 689.00
58.346 640.00
58.4112 566.00
58.4764 520.00
58.5416 467.00
58.6068 486.00
58.672 435.00
58.7372 500.00
58.8024 494.00
58.8676 500.00
58.9328 586.00
58.998 615.00
59.0632 747.00
59.1284 787.00
59.1936 714.00
59.2588 740.00
59.324 660.00
59.3892 542.00
59.4544 501.00
59.5196 471.00
59.5848 402.00
59.65 411.00
59.7152 374.00
59.7804 368.00
59.8456 388.00
59.9108 360.00
59.976 315.00
60.0412 323.00
60.1064 344.00
60.1716 339.00
60.2368 317.00
60.302 311.00
60.3672 324.00
60.4324 332.00
60.4976 319.00
60.5628 332.00
60.628 299.00
60.6932 326.00
60.7584 313.00
60.8236 348.00
60.8888 317.00
60.954 358.00
61.0192 359.00
61.0844 333.00
61.1496 334.00
61.2148 299.00
61.28 312.00
61.3452 340.00
61.4104 318.00
61.4756 346.00
61.5408 359.00
61.606 339.00
61.6712 351.00
61.7364 308.00
61.8016 353.00
61.8667 325.00
61.932 346.00
61.9971 367.00
62.0623 354.00
62.1275 319.00
62.1927 349.00
62.2579 338.00
62.3231 317.00
62.3883 357.00
62.4535 345.00
62.5187 386.00
62.5839 344.00
62.6491 357.00
62.7143 389.00
62.7795 387.00
62.8447 363.00
62.9099 457.00
62.9751 422.00
63.0403 548.00
63.1055 892.00
63.1707 2295.00
63.2359 1734.00
63.3011 1065.00
63.3663 1614.00
63.4315 784.00
63.4967 473.00
63.5619 440.00
63.6271 457.00
63.6923 445.00
63.7575 464.00
63.8227 525.00
63.8879 530.00
63.9531 643.00
64.0183 661.00
64.0835 817.00
64.1487 969.00
64.2139 1242.00
64.2791 1402.00
64.3443 1535.00
64.4095 1403.00
64.4747 1419.00
64.5399 1147.00
64.6051 1013.00
64.6703 798.00
64.7355 738.00
64.8007 615.00
64.8659 570.00
64.9311 580.00
64.9963 517.00
65.0615 511.00
65.1267 559.00
65.1919 537.00
65.2571 601.00
65.3223 700.00
65.3875 774.00
65.4527 766.00
65.5179 750.00
65.5831 667.00
65.6483 639.00
65.7135 521.00
65.7787 531.00
65.8439 534.00
65.9091 442.00
65.9743 426.00
66.0395 473.00
66.1047 433.00
66.1699 486.00
66.2351 546.00
66.3003 514.00
66.3655 516.00
66.4307 501.00
66.4959 503.00
66.561 497.00
66.6263 527.00
66.6915 798.00
66.7566 548.00
66.8218 480.00
66.887 492.00
66.9522 439.00
67.0174 363.00
67.0826 360.00
67.1478 329.00
67.213 364.00
67.2782 351.00
67.3434 337.00
67.4086 370.00
67.4738 334.00
67.539 294.00
67.6042 329.00
67.6694 375.00
67.7346 357.00
67.7998 386.00
67.865 414.00
67.9302 396.00
67.9954 421.00
68.0606 397.00
68.1258 510.00
68.191 856.00
68.2562 2136.00
68.3214 1407.00
68.3866 844.00
68.4518 1355.00
68.517 883.00
68.5822 513.00
68.6474 445.00
68.7126 381.00
68.7778 361.00
68.843 369.00
68.9082 372.00
68.9734 430.00
69.0386 390.00
69.1038 394.00
69.169 399.00
69.2342 407.00
69.2994 548.00
69.3646 989.00
69.4298 1278.00
69.495 749.00
69.5602 836.00
69.6254 1016.00
69.6906 732.00
69.7558 803.00
69.821 788.00
69.8862 1007.00
69.9514 1115.00
70.0166 1296.00
70.0818 1152.00
70.147 1085.00
70.2122 952.00
70.2774 829.00
70.3426 720.00
70.4078 640.00
70.473 555.00
70.5382 487.00
70.6034 478.00
70.6686 480.00
70.7338 404.00
70.799 442.00
70.8642 428.00
70.9294 474.00
70.9946 496.00
71.0598 511.00
71.125 599.00
71.1902 668.00
71.2554 631.00
71.3205 644.00
71.3858 607.00
71.451 508.00
71.5162 492.00
71.5813 481.00
71.6465 444.00
71.7117 408.00
71.7769 366.00
71.8421 346.00
71.9073 375.00
71.9725 326.00
72.0377 309.00
72.1029 323.00
72.1681 319.00
72.2333 326.00
72.2985 297.00
72.3637 348.00
72.4289 325.00
72.4941 327.00
72.5593 362.00
72.6245 357.00
72.6897 363.00
72.7549 395.00
72.8201 442.00
72.8853 592.00
72.9505 443.00
73.0157 461.00
73.0809 525.00
73.1461 500.00
73.2113 468.00
73.2765 449.00
73.3417 434.00
73.4069 415.00
73.4721 346.00
73.5373 392.00
73.6025 382.00
73.6677 325.00
73.7329 341.00
73.7981 337.00
73.8633 313.00
73.9285 304.00
73.9937 331.00
74.0589 290.00
74.1241 319.00
74.1893 328.00
74.2545 284.00
74.3197 332.00
74.3849 277.00
74.4501 326.00
74.5153 300.00
74.5805 344.00
74.6457 312.00
74.7109 318.00
74.7761 310.00
74.8413 290.00
74.9065 336.00
74.9717 346.00
75.0369 309.00
75.1021 318.00
75.1673 344.00
75.2325 318.00
75.2977 365.00
75.3629 323.00
75.4281 324.00
75.4933 371.00
75.5585 374.00
75.6237 406.00
75.6889 423.00
75.7541 386.00
75.8193 436.00
75.8845 502.00
75.9497 565.00
76.0149 558.00
76.0801 693.00
76.1452 770.00
76.2104 743.00
76.2756 724.00
76.3409 745.00
76.406 751.00
76.4712 763.00
76.5364 818.00
76.6016 848.00
76.6668 863.00
76.732 873.00
76.7972 774.00
76.8624 768.00
76.9276 711.00
76.9928 738.00
77.058 718.00
77.1232 715.00
77.1884 872.00
77.2536 1031.00
77.3188 1080.00
77.384 1075.00
77.4492 1222.00
77.5144 1287.00
77.5796 1324.00
77.6448 1339.00
77.71 1484.00
77.7752 1463.00
77.8404 1436.00
77.9056 1421.00
77.9708 1242.00
78.036 1173.00
78.1012 1027.00
78.1664 940.00
78.2316 808.00
78.2968 661.00
78.362 677.00
78.4272 599.00
78.4924 572.00
78.5576 568.00
78.6228 554.00
78.688 578.00
78.7532 588.00
78.8184 617.00
78.8836 553.00
78.9488 474.00
79.014 513.00
79.0792 543.00
79.1444 513.00
79.2096 441.00
79.2748 368.00
79.34 378.00
79.4052 365.00
79.4704 329.00
79.5356 331.00
79.6008 353.00
79.666 331.00
79.7312 328.00
79.7964 303.00
79.8616 327.00
79.9268 331.00
79.992 323.00
80.0572 319.00
80.1224 312.00
80.1876 308.00
80.2528 331.00
80.318 310.00
80.3832 314.00
80.4484 288.00
80.5136 323.00
80.5788 306.00
80.644 331.00
80.7092 354.00
80.7744 274.00
80.8396 279.00
80.9048 303.00
80.9699 321.00
81.0351 291.00
81.1003 265.00
81.1655 296.00
81.2307 293.00
81.2959 315.00
81.3611 250.00
81.4263 307.00
81.4915 331.00
81.5567 288.00
81.6219 323.00
81.6871 467.00
81.7523 373.00
81.8175 337.00
81.8827 386.00
81.9479 407.00
82.0131 351.00
82.0783 332.00
82.1435 335.00
82.2087 399.00
82.2739 376.00
82.3391 466.00
82.4043 437.00
82.4695 504.00
82.5347 624.00
82.5999 609.00
82.6651 650.00
82.7303 575.00
82.7955 575.00
82.8607 553.00
82.9259 487.00
82.9911 406.00
83.0563 380.00
83.1215 379.00
83.1867 346.00
83.2519 368.00
83.3171 319.00
83.3823 327.00
83.4475 346.00
83.5127 323.00
83.5779 282.00
83.6431 315.00
83.7083 312.00
83.7735 263.00
83.8387 298.00
83.9039 308.00
83.9691 301.00
84.0343 283.00
84.0995 257.00
84.1647 307.00
84.2299 291.00
84.2951 281.00
84.3603 259.00
84.4255 288.00
84.4907 307.00
84.5559 301.00
84.6211 288.00
84.6863 283.00
84.7515 313.00
84.8167 346.00
84.8819 316.00
84.9471 301.00
85.0123 361.00
85.0775 376.00
85.1427 405.00
85.2079 412.00
85.2731 379.00
85.3383 388.00
85.4035 406.00
85.4687 398.00
85.5339 367.00
85.5991 371.00
85.6643 365.00
85.7295 380.00
85.7946 348.00
85.8598 313.00
85.925 339.00
85.9903 354.00
86.0554 293.00
86.1206 369.00
86.1858 380.00
86.251 280.00
86.3162 331.00
86.3814 324.00
86.4466 331.00
86.5118 323.00
86.577 321.00
86.6422 305.00
86.7074 301.00
86.7726 283.00
86.8378 288.00
86.903 286.00
86.9682 247.00
87.0334 250.00
87.0986 300.00
87.1638 280.00
87.229 300.00
87.2942 302.00
87.3594 330.00
87.4246 267.00
87.4898 321.00
87.555 295.00
87.6202 311.00
87.6854 301.00
87.7506 274.00
87.8158 284.00
87.881 288.00
87.9462 288.00
88.0114 333.00
88.0766 305.00
88.1418 314.00
88.207 345.00
88.2722 321.00
88.3374 321.00
88.4026 351.00
88.4678 361.00
88.533 402.00
88.5982 422.00
88.6634 447.00
88.7286 494.00
88.7938 569.00
88.859 687.00
88.9242 718.00
88.9894 722.00
89.0546 745.00
89.1198 718.00
89.185 691.00
89.2502 657.00
89.3154 605.00
89.3806 526.00
89.4458 523.00
89.511 474.00
89.5762 466.00
89.6414 425.00
89.7066 446.00
89.7718 494.00
89.837 680.00
89.9022 1028.00
89.9674 634.00
90.0326 579.00
90.0978 566.00
90.163 786.00
90.2282 674.00
90.2934 574.00
90.3586 544.00
90.4238 587.00
90.489 624.00
90.5542 578.00
90.6193 645.00
90.6845 584.00
90.7497 584.00
90.8149 543.00
90.8801 552.00
90.9453 512.00
91.0105 488.00
91.0757 418.00
91.1409 444.00
91.2061 453.00
91.2713 432.00
91.3365 411.00
91.4017 423.00
91.4669 456.00
91.5321 466.00
91.5973 438.00
91.6625 451.00
91.7277 423.00
91.7929 404.00
91.8581 427.00
91.9233 408.00
91.9885 383.00
92.0537 379.00
92.1189 376.00
92.1841 390.00
92.2493 369.00
92.3145 383.00
92.3797 331.00
92.4449 368.00
92.5101 319.00
92.5753 313.00
92.6405 361.00
92.7057 369.00
92.7709 357.00
92.8361 335.00
92.9013 332.00
92.9665 395.00
93.0317 465.00
93.0969 463.00
93.1621 385.00
93.2273 345.00
93.2925 350.00
93.3577 408.00
93.4229 356.00
93.4881 315.00
93.5533 324.00
93.6185 332.00
93.6837 295.00
93.7489 282.00
93.8141 337.00
93.8793 301.00
93.9445 290.00
94.0097 308.00
94.0749 319.00
94.1401 321.00
94.2053 304.00
94.2705 326.00
94.3357 329.00
94.4009 292.00
94.4661 314.00
94.5313 297.00
94.5965 282.00
94.6617 280.00
94.7269 357.00
94.7921 316.00
94.8573 325.00
94.9225 329.00
94.9877 350.00
95.0529 376.00
95.1181 362.00
95.1833 393.00
95.2485 442.00
95.3137 449.00
95.3789 473.00
95.444 530.00
95.5092 867.00
95.5744 1128.00
95.6396 853.00
95.7048 782.00
95.77 875.00
95.8352 943.00
95.9004 1039.00
95.9656 847.00
96.0308 828.00
96.096 730.00
96.1612 721.00
96.2264 620.00
96.2916 591.00
96.3568 622.00
96.422 541.00
96.4872 568.00
96.5524 567.00
96.6176 513.00
96.6828 553.00
96.748 544.00
96.8132 568.00
96.8784 604.00
96.9436 655.00
97.0088 684.00
97.074 597.00
97.1392 651.00
97.2044 598.00
97.2696 585.00
97.3348 550.00
97.4 525.00
97.4652 511.00
97.5304 488.00
97.5956 407.00
97.6608 398.00
97.726 389.00
97.7912 358.00
97.8564 412.00
97.9216 401.00
97.9868 375.00
98.052 323.00
98.1172 344.00
98.1824 304.00
98.2476 318.00
98.3128 312.00
98.378 329.00
98.4432 338.00
98.5084 345.00
98.5736 332.00
98.6388 328.00
98.704 381.00
98.7692 395.00
98.8344 549.00
98.8996 646.00
98.9648 423.00
99.03 334.00
99.0952 395.00
99.1604 447.00
99.2256 484.00
99.2908 422.00
99.356 369.00
99.4212 320.00
99.4864 321.00
99.5516 322.00
99.6168 278.00
99.682 322.00
99.7472 322.00
99.8124 287.00
99.8776 313.00
99.9428 312.00
100.008 310.00
100.073 281.00
100.095 351.00