File: data/xrd_creation/results/PG_2744-1.xy
9.903433 2580.00
9.968632 2596.00
10.0338 2700.00
10.099 2630.00
10.1642 2612.00
10.2294 2629.00
10.2946 2595.00
10.3598 2513.00
10.425 2580.00
10.4902 2542.00
10.5554 2541.00
10.6206 2516.00
10.6858 2431.00
10.751 2445.00
10.8162 2456.00
10.8814 2451.00
10.9466 2437.00
11.0118 2384.00
11.077 2384.00
11.1422 2355.00
11.2074 2393.00
11.2726 2276.00
11.3378 2322.00
11.403 2230.00
11.4682 2352.00
11.5334 2245.00
11.5986 2196.00
11.6638 2187.00
11.729 2261.00
11.7942 2183.00
11.8594 2197.00
11.9246 2184.00
11.9898 2097.00
12.055 2154.00
12.1202 2068.00
12.1854 2211.00
12.2506 2107.00
12.3158 2007.00
12.381 2113.00
12.4462 1969.00
12.5114 2004.00
12.5766 1995.00
12.6418 2024.00
12.707 1974.00
12.7722 1947.00
12.8374 1900.00
12.9026 1902.00
12.9678 1914.00
13.033 1887.00
13.0982 1963.00
13.1634 1957.00
13.2286 1852.00
13.2938 1840.00
13.359 1907.00
13.4242 1839.00
13.4894 1832.00
13.5546 1855.00
13.6198 1850.00
13.685 1826.00
13.7502 1872.00
13.8154 1874.00
13.8805 1862.00
13.9457 1778.00
14.0109 1797.00
14.0761 1813.00
14.1413 1792.00
14.2065 1830.00
14.2717 1795.00
14.3369 1893.00
14.4021 1837.00
14.4673 1755.00
14.5325 1816.00
14.5977 1813.00
14.6629 1697.00
14.7281 1782.00
14.7933 1796.00
14.8585 1771.00
14.9237 1793.00
14.9889 1769.00
15.0541 1765.00
15.1193 1720.00
15.1845 1693.00
15.2497 1697.00
15.3149 1743.00
15.3801 1742.00
15.4453 1640.00
15.5105 1768.00
15.5757 1730.00
15.6409 1722.00
15.7061 1693.00
15.7713 1730.00
15.8365 1727.00
15.9017 1651.00
15.9669 1677.00
16.0321 1713.00
16.0973 1661.00
16.1625 1749.00
16.2277 1618.00
16.2929 1631.00
16.3581 1596.00
16.4233 1695.00
16.4885 1681.00
16.5537 1529.00
16.6189 1642.00
16.6841 1611.00
16.7493 1558.00
16.8145 1622.00
16.8797 1626.00
16.9449 1636.00
17.0101 1637.00
17.0753 1580.00
17.1405 1592.00
17.2057 1620.00
17.2709 1666.00
17.3361 1519.00
17.4013 1538.00
17.4665 1574.00
17.5317 1592.00
17.5969 1671.00
17.6621 1561.00
17.7273 1644.00
17.7925 1541.00
17.8577 1556.00
17.9229 1567.00
17.9881 1532.00
18.0533 1480.00
18.1185 1573.00
18.1837 1583.00
18.2489 1731.00
18.3141 1812.00
18.3793 1752.00
18.4445 1650.00
18.5097 1544.00
18.5749 1363.00
18.6401 1457.00
18.7052 1487.00
18.7704 1468.00
18.8356 1464.00
18.9008 1463.00
18.966 1465.00
19.0312 1481.00
19.0964 1429.00
19.1616 1511.00
19.2268 1459.00
19.292 1556.00
19.3572 1417.00
19.4224 1486.00
19.4876 1386.00
19.5528 1435.00
19.618 1376.00
19.6832 1399.00
19.7484 1447.00
19.8136 1389.00
19.8788 1402.00
19.944 1451.00
20.0092 1402.00
20.0744 1382.00
20.1396 1352.00
20.2048 1439.00
20.27 1388.00
20.3352 1387.00
20.4004 1452.00
20.4656 1357.00
20.5308 1380.00
20.596 1341.00
20.6612 1425.00
20.7264 1335.00
20.7916 1302.00
20.8568 1353.00
20.922 1372.00
20.9872 1351.00
21.0524 1382.00
21.1176 1330.00
21.1828 1300.00
21.248 1335.00
21.3132 1295.00
21.3784 1342.00
21.4436 1293.00
21.5088 1341.00
21.574 1242.00
21.6392 1309.00
21.7044 1338.00
21.7696 1267.00
21.8348 1332.00
21.9 1228.00
21.9652 1320.00
22.0304 1300.00
22.0956 1282.00
22.1608 1213.00
22.226 1253.00
22.2912 1275.00
22.3564 1301.00
22.4216 1220.00
22.4868 1247.00
22.552 1290.00
22.6172 1262.00
22.6824 1287.00
22.7476 1236.00
22.8128 1272.00
22.878 1294.00
22.9432 1280.00
23.0084 1264.00
23.0736 1261.00
23.1388 1144.00
23.204 1194.00
23.2692 1261.00
23.3344 1270.00
23.3996 1315.00
23.4647 1230.00
23.5299 1184.00
23.5951 1238.00
23.6603 1221.00
23.7255 1227.00
23.7907 1211.00
23.8559 1234.00
23.9211 1159.00
23.9863 1231.00
24.0515 1176.00
24.1167 1214.00
24.1819 1229.00
24.2471 1165.00
24.3123 1199.00
24.3775 1217.00
24.4427 1120.00
24.5079 1220.00
24.5731 1194.00
24.6383 1201.00
24.7035 1198.00
24.7687 1176.00
24.8339 1131.00
24.8991 1162.00
24.9643 1162.00
25.0295 1105.00
25.0947 1146.00
25.1599 1168.00
25.2251 1117.00
25.2903 1153.00
25.3555 1139.00
25.4207 1097.00
25.4859 1127.00
25.5511 1110.00
25.6163 1121.00
25.6815 1094.00
25.7467 1177.00
25.8119 1134.00
25.8771 1148.00
25.9423 1149.00
26.0075 1237.00
26.0727 1134.00
26.1379 1144.00
26.2031 1201.00
26.2683 1238.00
26.3335 1310.00
26.3987 1323.00
26.4639 1393.00
26.5291 1524.00
26.5943 1759.00
26.6595 2142.00
26.7247 3250.00
26.7899 5709.00
26.8551 10301.00
26.9203 12965.00
26.9855 8696.00
27.0507 3836.00
27.1159 2129.00
27.1811 1698.00
27.2463 1457.00
27.3115 1408.00
27.3767 1246.00
27.4419 1168.00
27.5071 1177.00
27.5723 1203.00
27.6375 1174.00
27.7027 1100.00
27.7679 1149.00
27.8331 1076.00
27.8983 1073.00
27.9635 1096.00
28.0287 1068.00
28.0939 1044.00
28.1591 1090.00
28.2243 1075.00
28.2894 1047.00
28.3546 1090.00
28.4198 1012.00
28.485 1017.00
28.5502 1001.00
28.6154 1102.00
28.6806 1025.00
28.7458 1112.00
28.811 981.00
28.8762 1034.00
28.9414 1037.00
29.0066 1106.00
29.0718 1174.00
29.137 1367.00
29.2022 1596.00
29.2674 1384.00
29.3326 1171.00
29.3978 1023.00
29.463 1036.00
29.5282 1018.00
29.5934 1067.00
29.6586 941.00
29.7238 959.00
29.789 1025.00
29.8542 1001.00
29.9194 961.00
29.9846 959.00
30.0498 987.00
30.115 943.00
30.1802 1028.00
30.2454 976.00
30.3106 966.00
30.3758 969.00
30.441 946.00
30.5062 1019.00
30.5714 947.00
30.6366 970.00
30.7018 950.00
30.767 1012.00
30.8322 1026.00
30.8974 986.00
30.9626 988.00
31.0278 924.00
31.093 977.00
31.1582 991.00
31.2234 1003.00
31.2886 1128.00
31.3538 1232.00
31.419 1068.00
31.4842 993.00
31.5494 960.00
31.6146 955.00
31.6798 953.00
31.745 973.00
31.8102 927.00
31.8754 917.00
31.9406 924.00
32.0058 931.00
32.071 937.00
32.1362 891.00
32.2014 914.00
32.2666 928.00
32.3318 947.00
32.397 999.00
32.4622 1021.00
32.5274 1396.00
32.5926 2091.00
32.6578 2287.00
32.723 1644.00
32.7882 1151.00
32.8534 947.00
32.9186 915.00
32.9838 1062.00
33.0489 1132.00
33.1141 1146.00
33.1793 1372.00
33.2445 1402.00
33.3097 1234.00
33.3749 1089.00
33.4401 1066.00
33.5053 1028.00
33.5705 1029.00
33.6357 1083.00
33.7009 1080.00
33.7661 1127.00
33.8313 1240.00
33.8965 1361.00
33.9617 1948.00
34.0269 2844.00
34.0921 5400.00
34.1573 10006.00
34.2225 10719.00
34.2877 6761.00
34.3529 3154.00
34.4181 1798.00
34.4833 1390.00
34.5485 1269.00
34.6137 1179.00
34.6789 942.00
34.7441 1007.00
34.8093 960.00
34.8745 936.00
34.9397 934.00
35.0049 909.00
35.0701 932.00
35.1353 925.00
35.2005 904.00
35.2657 961.00
35.3309 911.00
35.3961 853.00
35.4613 914.00
35.5265 857.00
35.5917 918.00
35.6569 886.00
35.7221 898.00
35.7873 850.00
35.8525 909.00
35.9177 878.00
35.9829 912.00
36.0481 892.00
36.1133 864.00
36.1785 951.00
36.2437 1098.00
36.3089 1594.00
36.3741 2582.00
36.4393 2496.00
36.5045 1835.00
36.5697 1047.00
36.6349 989.00
36.7001 938.00
36.7653 1142.00
36.8305 1059.00
36.8957 987.00
36.9609 916.00
37.0261 890.00
37.0913 824.00
37.1565 907.00
37.2217 860.00
37.2869 855.00
37.3521 872.00
37.4173 822.00
37.4825 872.00
37.5477 816.00
37.6129 868.00
37.6781 820.00
37.7433 887.00
37.8085 907.00
37.8736 868.00
37.9388 976.00
38.004 1027.00
38.0692 1188.00
38.1344 1627.00
38.1996 2771.00
38.2648 4129.00
38.33 3469.00
38.3952 2403.00
38.4604 1351.00
38.5256 1098.00
38.5908 1004.00
38.656 951.00
38.7212 904.00
38.7864 795.00
38.8516 818.00
38.9168 847.00
38.982 802.00
39.0472 846.00
39.1124 888.00
39.1776 1034.00
39.2428 1196.00
39.308 1435.00
39.3732 1107.00
39.4384 940.00
39.5036 897.00
39.5688 754.00
39.634 817.00
39.6992 811.00
39.7644 825.00
39.8296 796.00
39.8948 826.00
39.96 796.00
40.0252 758.00
40.0904 804.00
40.1556 802.00
40.2208 784.00
40.286 781.00
40.3512 755.00
40.4164 802.00
40.4816 766.00
40.5468 791.00
40.612 766.00
40.6772 770.00
40.7424 790.00
40.8076 716.00
40.8728 766.00
40.938 776.00
41.0032 791.00
41.0684 778.00
41.1336 776.00
41.1988 763.00
41.264 770.00
41.3292 762.00
41.3944 745.00
41.4596 709.00
41.5248 762.00
41.59 807.00
41.6552 724.00
41.7204 741.00
41.7856 731.00
41.8508 732.00
41.916 761.00
41.9812 724.00
42.0464 754.00
42.1116 724.00
42.1768 740.00
42.242 750.00
42.3072 714.00
42.3724 765.00
42.4376 770.00
42.5028 755.00
42.568 798.00
42.6332 799.00
42.6983 714.00
42.7635 780.00
42.8287 797.00
42.8939 886.00
42.9591 973.00
43.0243 827.00
43.0895 811.00
43.1547 799.00
43.2199 772.00
43.2851 759.00
43.3503 691.00
43.4155 736.00
43.4807 752.00
43.5459 809.00
43.6111 728.00
43.6763 737.00
43.7415 721.00
43.8067 722.00
43.8719 747.00
43.9371 733.00
44.0023 672.00
44.0675 709.00
44.1327 672.00
44.1979 700.00
44.2631 678.00
44.3283 738.00
44.3935 728.00
44.4587 803.00
44.5239 763.00
44.5891 760.00
44.6543 882.00
44.7195 1217.00
44.7847 1027.00
44.8499 929.00
44.9151 741.00
44.9803 697.00
45.0455 772.00
45.1107 740.00
45.1759 728.00
45.2411 737.00
45.3063 822.00
45.3715 759.00
45.4367 746.00
45.5019 745.00
45.5671 713.00
45.6323 683.00
45.6975 729.00
45.7627 730.00
45.8279 731.00
45.8931 739.00
45.9583 689.00
46.0235 635.00
46.0887 692.00
46.1539 702.00
46.2191 677.00
46.2843 696.00
46.3495 726.00
46.4147 680.00
46.4799 681.00
46.5451 703.00
46.6103 702.00
46.6755 736.00
46.7407 753.00
46.8059 714.00
46.8711 738.00
46.9363 659.00
47.0015 709.00
47.0667 679.00
47.1319 685.00
47.1971 716.00
47.2623 700.00
47.3275 720.00
47.3927 667.00
47.4579 722.00
47.523 714.00
47.5882 712.00
47.6534 708.00
47.7186 738.00
47.7838 660.00
47.849 671.00
47.9142 711.00
47.9794 758.00
48.0446 695.00
48.1098 715.00
48.175 711.00
48.2402 662.00
48.3054 678.00
48.3706 718.00
48.4358 660.00
48.501 681.00
48.5662 699.00
48.6314 683.00
48.6966 711.00
48.7618 689.00
48.827 722.00
48.8922 680.00
48.9574 661.00
49.0226 690.00
49.0878 672.00
49.153 718.00
49.2182 679.00
49.2834 705.00
49.3486 699.00
49.4138 703.00
49.479 727.00
49.5442 774.00
49.6094 712.00
49.6746 727.00
49.7398 715.00
49.805 688.00
49.8702 711.00
49.9354 714.00
50.0006 760.00
50.0658 821.00
50.131 873.00
50.1962 771.00
50.2614 781.00
50.3266 746.00
50.3918 718.00
50.457 709.00
50.5222 748.00
50.5874 761.00
50.6526 742.00
50.7178 719.00
50.783 759.00
50.8482 759.00
50.9134 911.00
50.9786 1115.00
51.0438 1056.00
51.109 973.00
51.1742 899.00
51.2394 784.00
51.3046 767.00
51.3698 818.00
51.435 748.00
51.5002 811.00
51.5654 854.00
51.6306 955.00
51.6958 1051.00
51.761 1094.00
51.8262 1337.00
51.8914 1723.00
51.9566 3237.00
52.0218 7398.00
52.087 9519.00
52.1522 6247.00
52.2174 5658.00
52.2826 2836.00
52.3477 1534.00
52.4129 1150.00
52.4781 1004.00
52.5433 936.00
52.6085 824.00
52.6737 831.00
52.7389 832.00
52.8041 783.00
52.8693 728.00
52.9345 712.00
52.9997 734.00
53.0649 742.00
53.1301 749.00
53.1953 737.00
53.2605 721.00
53.3257 735.00
53.3909 738.00
53.4561 757.00
53.5213 733.00
53.5865 733.00
53.6517 715.00
53.7169 676.00
53.7821 694.00
53.8473 726.00
53.9125 744.00
53.9777 747.00
54.0429 816.00
54.1081 853.00
54.1733 902.00
54.2385 785.00
54.3037 816.00
54.3689 763.00
54.4341 713.00
54.4993 692.00
54.5645 757.00
54.6297 782.00
54.6949 774.00
54.7601 804.00
54.8253 869.00
54.8905 1068.00
54.9557 1477.00
55.0209 2581.00
55.0861 2447.00
55.1513 2042.00
55.2165 1864.00
55.2817 1165.00
55.3469 1002.00
55.4121 924.00
55.4773 830.00
55.5425 806.00
55.6077 766.00
55.6729 785.00
55.7381 699.00
55.8033 751.00
55.8685 639.00
55.9337 725.00
55.9989 688.00
56.0641 694.00
56.1293 741.00
56.1945 797.00
56.2597 836.00
56.3249 759.00
56.3901 830.00
56.4553 795.00
56.5205 742.00
56.5857 679.00
56.6509 682.00
56.7161 671.00
56.7813 691.00
56.8465 715.00
56.9117 681.00
56.9769 725.00
57.042 715.00
57.1073 703.00
57.1724 719.00
57.2376 687.00
57.3028 731.00
57.368 728.00
57.4332 659.00
57.4984 687.00
57.5636 715.00
57.6288 689.00
57.694 740.00
57.7592 808.00
57.8244 666.00
57.8896 765.00
57.9548 919.00
58.02 1168.00
58.0852 1519.00
58.1504 1547.00
58.2156 1336.00
58.2808 1232.00
58.346 954.00
58.4112 792.00
58.4764 792.00
58.5416 758.00
58.6068 711.00
58.672 800.00
58.7372 1043.00
58.8024 1290.00
58.8676 1025.00
58.9328 1007.00
58.998 925.00
59.0632 817.00
59.1284 746.00
59.1936 753.00
59.2588 728.00
59.324 683.00
59.3892 708.00
59.4544 675.00
59.5196 709.00
59.5848 699.00
59.65 632.00
59.7152 658.00
59.7804 647.00
59.8456 707.00
59.9108 729.00
59.976 864.00
60.0412 1109.00
60.1064 1729.00
60.1716 1343.00
60.2368 1169.00
60.302 1255.00
60.3672 866.00
60.4324 737.00
60.4976 700.00
60.5628 687.00
60.628 712.00
60.6932 685.00
60.7584 708.00
60.8236 644.00
60.8888 702.00
60.954 707.00
61.0192 744.00
61.0844 688.00
61.1496 676.00
61.2148 641.00
61.28 654.00
61.3452 652.00
61.4104 704.00
61.4756 654.00
61.5408 699.00
61.606 668.00
61.6712 748.00
61.7364 728.00
61.8016 807.00
61.8667 749.00
61.932 824.00
61.9971 910.00
62.0623 1369.00
62.1275 2313.00
62.1927 2293.00
62.2579 1687.00
62.3231 1774.00
62.3883 1293.00
62.4535 955.00
62.5187 820.00
62.5839 726.00
62.6491 749.00
62.7143 741.00
62.7795 711.00
62.8447 714.00
62.9099 651.00
62.9751 695.00
63.0403 686.00
63.1055 658.00
63.1707 701.00
63.2359 672.00
63.3011 751.00
63.3663 747.00
63.4315 699.00
63.4967 731.00
63.5619 726.00
63.6271 689.00
63.6923 664.00
63.7575 661.00
63.8227 713.00
63.8879 710.00
63.9531 641.00
64.0183 703.00
64.0835 718.00
64.1487 657.00
64.2139 746.00
64.2791 727.00
64.3443 686.00
64.4095 714.00
64.4747 744.00
64.5399 811.00
64.6051 748.00
64.6703 825.00
64.7355 830.00
64.8007 950.00
64.8659 1430.00
64.9311 2094.00
64.9963 2647.00
65.0615 2317.00
65.1267 1898.00
65.1919 1857.00
65.2571 1273.00
65.3223 977.00
65.3875 918.00
65.4527 798.00
65.5179 797.00
65.5831 783.00
65.6483 772.00
65.7135 814.00
65.7787 828.00
65.8439 828.00
65.9091 905.00
65.9743 948.00
66.0395 998.00
66.1047 1315.00
66.1699 2209.00
66.2351 3115.00
66.3003 2360.00
66.3655 1953.00
66.4307 1940.00
66.4959 1372.00
66.561 995.00
66.6263 872.00
66.6915 779.00
66.7566 759.00
66.8218 709.00
66.887 694.00
66.9522 698.00
67.0174 683.00
67.0826 673.00
67.1478 677.00
67.213 667.00
67.2782 737.00
67.3434 718.00
67.4086 682.00
67.4738 704.00
67.539 683.00
67.6042 708.00
67.6694 687.00
67.7346 714.00
67.7998 721.00
67.865 723.00
67.9302 765.00
67.9954 686.00
68.0606 728.00
68.1258 703.00
68.191 682.00
68.2562 696.00
68.3214 717.00
68.3866 687.00
68.4518 660.00
68.517 680.00
68.5822 622.00
68.6474 640.00
68.7126 643.00
68.7778 679.00
68.843 719.00
68.9082 670.00
68.9734 633.00
69.0386 704.00
69.1038 651.00
69.169 666.00
69.2342 688.00
69.2994 660.00
69.3646 661.00
69.4298 707.00
69.495 666.00
69.5602 717.00
69.6254 674.00
69.6906 667.00
69.7558 728.00
69.821 690.00
69.8862 782.00
69.9514 764.00
70.0166 683.00
70.0818 685.00
70.147 746.00
70.2122 663.00
70.2774 655.00
70.3426 637.00
70.4078 675.00
70.473 687.00
70.5382 705.00
70.6034 667.00
70.6686 681.00
70.7338 679.00
70.799 703.00
70.8642 611.00
70.9294 734.00
70.9946 681.00
71.0598 685.00
71.125 672.00
71.1902 652.00
71.2554 738.00
71.3205 752.00
71.3858 838.00
71.451 1071.00
71.5162 1593.00
71.5813 1487.00
71.6465 1090.00
71.7117 1168.00
71.7769 1107.00
71.8421 892.00
71.9073 769.00
71.9725 720.00
72.0377 717.00
72.1029 677.00
72.1681 684.00
72.2333 650.00
72.2985 705.00
72.3637 684.00
72.4289 687.00
72.4941 708.00
72.5593 686.00
72.6245 708.00
72.6897 662.00
72.7549 672.00
72.8201 662.00
72.8853 677.00
72.9505 663.00
73.0157 665.00
73.0809 709.00
73.1461 663.00
73.2113 624.00
73.2765 652.00
73.3417 619.00
73.4069 643.00
73.4721 652.00
73.5373 688.00
73.6025 683.00
73.6677 663.00
73.7329 681.00
73.7981 636.00
73.8633 696.00
73.9285 711.00
73.9937 646.00
74.0589 685.00
74.1241 691.00
74.1893 697.00
74.2545 705.00
74.3197 735.00
74.3849 871.00
74.4501 792.00
74.5153 739.00
74.5805 771.00
74.6457 792.00
74.7109 761.00
74.7761 670.00
74.8413 676.00
74.9065 647.00
74.9717 688.00
75.0369 683.00
75.1021 642.00
75.1673 632.00
75.2325 655.00
75.2977 664.00
75.3629 643.00
75.4281 657.00
75.4933 670.00
75.5585 668.00
75.6237 684.00
75.6889 702.00
75.7541 652.00
75.8193 698.00
75.8845 684.00
75.9497 651.00
76.0149 669.00
76.0801 646.00
76.1452 633.00
76.2104 632.00
76.2756 642.00
76.3409 661.00
76.406 669.00
76.4712 668.00
76.5364 676.00
76.6016 621.00
76.6668 664.00
76.732 678.00
76.7972 773.00
76.8624 783.00
76.9276 675.00
76.9928 699.00
77.058 733.00
77.1232 663.00
77.1884 654.00
77.2536 672.00
77.3188 698.00
77.384 712.00
77.4492 642.00
77.5144 674.00
77.5796 686.00
77.6448 677.00
77.71 681.00
77.7752 763.00
77.8404 717.00
77.9056 727.00
77.9708 725.00
78.036 684.00
78.1012 646.00
78.1664 615.00
78.2316 708.00
78.2968 723.00
78.362 678.00
78.4272 673.00
78.4924 707.00
78.5576 734.00
78.6228 676.00
78.688 793.00
78.7532 828.00
78.8184 962.00
78.8836 1487.00
78.9488 2179.00
79.014 1849.00
79.0792 1239.00
79.1444 1353.00
79.2096 1473.00
79.2748 1068.00
79.34 911.00
79.4052 757.00
79.4704 740.00
79.5356 729.00
79.6008 661.00
79.666 702.00
79.7312 698.00
79.7964 659.00
79.8616 653.00
79.9268 668.00
79.992 697.00
80.0572 648.00
80.1224 665.00
80.1876 712.00
80.2528 741.00
80.318 749.00
80.3832 690.00
80.4484 684.00
80.5136 756.00
80.5788 749.00
80.644 740.00
80.7092 682.00
80.7744 692.00
80.8396 707.00
80.9048 676.00
80.9699 679.00
81.0351 666.00
81.1003 732.00
81.1655 760.00
81.2307 781.00
81.2959 842.00
81.3611 1135.00
81.4263 1190.00
81.4915 969.00
81.5567 849.00
81.6219 916.00
81.6871 872.00
81.7523 728.00
81.8175 697.00
81.8827 685.00
81.9479 657.00
82.0131 675.00
82.0783 664.00
82.1435 721.00
82.2087 673.00
82.2739 646.00
82.3391 659.00
82.4043 722.00
82.4695 676.00
82.5347 673.00
82.5999 682.00
82.6651 620.00
82.7303 689.00
82.7955 697.00
82.8607 667.00
82.9259 683.00
82.9911 677.00
83.0563 665.00
83.1215 730.00
83.1867 677.00
83.2519 724.00
83.3171 672.00
83.3823 675.00
83.4475 678.00
83.5127 715.00
83.5779 725.00
83.6431 732.00
83.7083 753.00
83.7735 848.00
83.8387 978.00
83.9039 1482.00
83.9691 1756.00
84.0343 1260.00
84.0995 1056.00
84.1647 1237.00
84.2299 1249.00
84.2951 908.00
84.3603 814.00
84.4255 734.00
84.4907 779.00
84.5559 682.00
84.6211 659.00
84.6863 672.00
84.7515 699.00
84.8167 687.00
84.8819 714.00
84.9471 699.00
85.0123 646.00
85.0775 705.00
85.1427 696.00
85.2079 668.00
85.2731 687.00
85.3383 660.00
85.4035 646.00
85.4687 700.00
85.5339 694.00
85.5991 675.00
85.6643 719.00
85.7295 696.00
85.7946 642.00
85.8598 704.00
85.925 659.00
85.9903 702.00
86.0554 748.00
86.1206 678.00
86.1858 708.00
86.251 707.00
86.3162 697.00
86.3814 658.00
86.4466 657.00
86.5118 717.00
86.577 696.00
86.6422 748.00
86.7074 812.00
86.7726 807.00
86.8378 698.00
86.903 731.00
86.9682 746.00
87.0334 761.00
87.0986 667.00
87.1638 648.00
87.229 750.00
87.2942 793.00
87.3594 775.00
87.4246 1023.00
87.4898 1147.00
87.555 895.00
87.6202 838.00
87.6854 868.00
87.7506 942.00
87.8158 855.00
87.881 716.00
87.9462 734.00
88.0114 697.00
88.0766 725.00
88.1418 659.00
88.207 670.00
88.2722 705.00
88.3374 727.00
88.4026 683.00
88.4678 686.00
88.533 675.00
88.5982 646.00
88.6634 664.00
88.7286 667.00
88.7938 687.00
88.859 662.00
88.9242 677.00
88.9894 670.00
89.0546 660.00
89.1198 709.00
89.185 759.00
89.2502 711.00
89.3154 738.00
89.3806 699.00
89.4458 714.00
89.511 764.00
89.5762 733.00
89.6414 791.00
89.7066 772.00
89.7718 857.00
89.837 998.00
89.9022 1099.00
89.9674 1647.00
90.0326 1836.00
90.0978 1387.00
90.163 1161.00
90.2282 1148.00
90.2934 1387.00
90.3586 1157.00
90.4238 923.00
90.489 844.00
90.5542 813.00
90.6193 795.00
90.6845 792.00
90.7497 806.00
90.8149 844.00
90.8801 979.00
90.9453 1053.00
91.0105 1190.00
91.0757 1735.00
91.1409 1925.00
91.2061 1557.00
91.2713 1263.00
91.3365 1174.00
91.4017 1375.00
91.4669 1254.00
91.5321 917.00
91.5973 829.00
91.6625 803.00
91.7277 728.00
91.7929 721.00
91.8581 703.00
91.9233 709.00
91.9885 680.00
92.0537 696.00
92.1189 706.00
92.1841 688.00
92.2493 687.00
92.3145 665.00
92.3797 626.00
92.4449 690.00
92.5101 702.00
92.5753 686.00
92.6405 699.00
92.7057 661.00
92.7709 688.00
92.8361 696.00
92.9013 696.00
92.9665 796.00
93.0317 740.00
93.0969 771.00
93.1621 743.00
93.2273 754.00
93.2925 740.00
93.3577 842.00
93.4229 938.00
93.4881 1197.00
93.5533 1256.00
93.6185 961.00
93.6837 818.00
93.7489 878.00
93.8141 976.00
93.8793 901.00
93.9445 887.00
94.0097 754.00
94.0749 744.00
94.1401 736.00
94.2053 690.00
94.2705 713.00
94.3357 721.00
94.4009 652.00
94.4661 688.00
94.5313 708.00
94.5965 720.00
94.6617 666.00
94.7269 673.00
94.7921 667.00
94.8573 704.00
94.9225 675.00
94.9877 719.00
95.0529 746.00
95.1181 719.00
95.1833 702.00
95.2485 683.00
95.3137 723.00
95.3789 669.00
95.444 689.00
95.5092 682.00
95.5744 665.00
95.6396 698.00
95.7048 697.00
95.77 705.00
95.8352 708.00
95.9004 691.00
95.9656 746.00
96.0308 776.00
96.096 844.00
96.1612 1048.00
96.2264 1158.00
96.2916 1105.00
96.3568 914.00
96.422 867.00
96.4872 947.00
96.5524 1013.00
96.6176 901.00
96.6828 795.00
96.748 790.00
96.8132 725.00
96.8784 749.00
96.9436 774.00
97.0088 760.00
97.074 759.00
97.1392 759.00
97.2044 645.00
97.2696 702.00
97.3348 654.00
97.4 671.00
97.4652 717.00
97.5304 715.00
97.5956 677.00
97.6608 675.00
97.726 661.00
97.7912 688.00
97.8564 757.00
97.9216 672.00
97.9868 648.00
98.052 667.00
98.1172 730.00
98.1824 689.00
98.2476 676.00
98.3128 751.00
98.378 758.00
98.4432 807.00
98.5084 760.00
98.5736 719.00
98.6388 688.00
98.704 699.00
98.7692 710.00
98.8344 758.00
98.8996 690.00
98.9648 722.00
99.03 669.00
99.0952 711.00
99.1604 751.00
99.2256 704.00
99.2908 728.00
99.356 727.00
99.4212 694.00
99.4864 689.00
99.5516 680.00
99.6168 705.00
99.682 671.00
99.7472 686.00
99.8124 666.00
99.8776 650.00
99.9428 693.00
100.008 685.00
100.073 672.00
100.095 667.00