File: data/xrd_creation/results/PG_2541-1.xy
9.903433 2615.00
9.968632 2595.00
10.0338 2720.00
10.099 2738.00
10.1642 2589.00
10.2294 2597.00
10.2946 2540.00
10.3598 2544.00
10.425 2587.00
10.4902 2483.00
10.5554 2504.00
10.6206 2530.00
10.6858 2391.00
10.751 2380.00
10.8162 2380.00
10.8814 2317.00
10.9466 2421.00
11.0118 2302.00
11.077 2332.00
11.1422 2268.00
11.2074 2300.00
11.2726 2338.00
11.3378 2205.00
11.403 2143.00
11.4682 2225.00
11.5334 2295.00
11.5986 2188.00
11.6638 2166.00
11.729 2160.00
11.7942 2132.00
11.8594 2087.00
11.9246 2111.00
11.9898 2059.00
12.055 2121.00
12.1202 2042.00
12.1854 2093.00
12.2506 2062.00
12.3158 2110.00
12.381 1988.00
12.4462 2077.00
12.5114 2006.00
12.5766 2017.00
12.6418 2044.00
12.707 1959.00
12.7722 1962.00
12.8374 2004.00
12.9026 1979.00
12.9678 1906.00
13.033 2009.00
13.0982 1977.00
13.1634 1960.00
13.2286 2002.00
13.2938 1913.00
13.359 2002.00
13.4242 1845.00
13.4894 1896.00
13.5546 1938.00
13.6198 2062.00
13.685 2093.00
13.7502 2227.00
13.8154 2454.00
13.8805 2998.00
13.9457 4025.00
14.0109 5342.00
14.0761 6322.00
14.1413 3945.00
14.2065 2212.00
14.2717 1964.00
14.3369 1904.00
14.4021 1827.00
14.4673 1800.00
14.5325 1812.00
14.5977 1700.00
14.6629 1699.00
14.7281 1765.00
14.7933 1797.00
14.8585 1858.00
14.9237 1783.00
14.9889 1671.00
15.0541 1753.00
15.1193 1643.00
15.1845 1672.00
15.2497 1752.00
15.3149 1747.00
15.3801 1728.00
15.4453 1746.00
15.5105 1680.00
15.5757 1686.00
15.6409 1731.00
15.7061 1694.00
15.7713 1651.00
15.8365 1587.00
15.9017 1728.00
15.9669 1695.00
16.0321 1652.00
16.0973 1678.00
16.1625 1643.00
16.2277 1652.00
16.2929 1575.00
16.3581 1614.00
16.4233 1642.00
16.4885 1604.00
16.5537 1660.00
16.6189 1551.00
16.6841 1574.00
16.7493 1613.00
16.8145 1561.00
16.8797 1542.00
16.9449 1570.00
17.0101 1634.00
17.0753 1477.00
17.1405 1522.00
17.2057 1485.00
17.2709 1500.00
17.3361 1510.00
17.4013 1508.00
17.4665 1531.00
17.5317 1461.00
17.5969 1516.00
17.6621 1467.00
17.7273 1469.00
17.7925 1526.00
17.8577 1449.00
17.9229 1378.00
17.9881 1493.00
18.0533 1429.00
18.1185 1415.00
18.1837 1440.00
18.2489 1476.00
18.3141 1498.00
18.3793 1363.00
18.4445 1388.00
18.5097 1421.00
18.5749 1417.00
18.6401 1428.00
18.7052 1478.00
18.7704 1468.00
18.8356 1299.00
18.9008 1404.00
18.966 1461.00
19.0312 1356.00
19.0964 1343.00
19.1616 1334.00
19.2268 1391.00
19.292 1413.00
19.3572 1444.00
19.4224 1373.00
19.4876 1402.00
19.5528 1432.00
19.618 1448.00
19.6832 1465.00
19.7484 1562.00
19.8136 1422.00
19.8788 1297.00
19.944 1322.00
20.0092 1264.00
20.0744 1324.00
20.1396 1343.00
20.2048 1348.00
20.27 1306.00
20.3352 1334.00
20.4004 1215.00
20.4656 1238.00
20.5308 1205.00
20.596 1230.00
20.6612 1225.00
20.7264 1264.00
20.7916 1199.00
20.8568 1177.00
20.922 1186.00
20.9872 1181.00
21.0524 1177.00
21.1176 1200.00
21.1828 1236.00
21.248 1201.00
21.3132 1220.00
21.3784 1237.00
21.4436 1138.00
21.5088 1193.00
21.574 1206.00
21.6392 1127.00
21.7044 1097.00
21.7696 1176.00
21.8348 1164.00
21.9 1174.00
21.9652 1153.00
22.0304 1238.00
22.0956 1152.00
22.1608 1124.00
22.226 1133.00
22.2912 1154.00
22.3564 1227.00
22.4216 1145.00
22.4868 1169.00
22.552 1154.00
22.6172 1129.00
22.6824 1073.00
22.7476 1188.00
22.8128 1155.00
22.878 1168.00
22.9432 1107.00
23.0084 1167.00
23.0736 1151.00
23.1388 1102.00
23.204 1127.00
23.2692 1073.00
23.3344 1045.00
23.3996 1094.00
23.4647 1034.00
23.5299 1079.00
23.5951 1012.00
23.6603 1069.00
23.7255 1052.00
23.7907 1108.00
23.8559 1113.00
23.9211 1039.00
23.9863 1040.00
24.0515 999.00
24.1167 1065.00
24.1819 1067.00
24.2471 1031.00
24.3123 1079.00
24.3775 1036.00
24.4427 1046.00
24.5079 1008.00
24.5731 1043.00
24.6383 1046.00
24.7035 1069.00
24.7687 1082.00
24.8339 1009.00
24.8991 1013.00
24.9643 948.00
25.0295 1013.00
25.0947 1002.00
25.1599 1006.00
25.2251 1067.00
25.2903 1145.00
25.3555 1018.00
25.4207 953.00
25.4859 1001.00
25.5511 1052.00
25.6163 1068.00
25.6815 1093.00
25.7467 1233.00
25.8119 1291.00
25.8771 1198.00
25.9423 1062.00
26.0075 997.00
26.0727 1031.00
26.1379 988.00
26.2031 937.00
26.2683 964.00
26.3335 974.00
26.3987 994.00
26.4639 971.00
26.5291 988.00
26.5943 986.00
26.6595 1032.00
26.7247 998.00
26.7899 1077.00
26.8551 1046.00
26.9203 1013.00
26.9855 972.00
27.0507 1164.00
27.1159 1174.00
27.1811 1177.00
27.2463 1207.00
27.3115 1270.00
27.3767 1335.00
27.4419 1368.00
27.5071 1582.00
27.5723 1721.00
27.6375 1987.00
27.7027 2459.00
27.7679 3699.00
27.8331 7173.00
27.8983 16884.00
27.9635 37667.00
28.0287 48241.00
28.0939 24202.00
28.1591 6243.00
28.2243 3035.00
28.2894 2267.00
28.3546 1889.00
28.4198 1619.00
28.485 1525.00
28.5502 1584.00
28.6154 2026.00
28.6806 2776.00
28.7458 2281.00
28.811 1604.00
28.8762 1491.00
28.9414 1588.00
29.0066 1420.00
29.0718 1095.00
29.137 1013.00
29.2022 1051.00
29.2674 1007.00
29.3326 933.00
29.3978 973.00
29.463 885.00
29.5282 970.00
29.5934 982.00
29.6586 915.00
29.7238 913.00
29.789 907.00
29.8542 889.00
29.9194 923.00
29.9846 947.00
30.0498 904.00
30.115 974.00
30.1802 954.00
30.2454 842.00
30.3106 884.00
30.3758 903.00
30.441 919.00
30.5062 970.00
30.5714 901.00
30.6366 870.00
30.7018 869.00
30.767 829.00
30.8322 859.00
30.8974 900.00
30.9626 922.00
31.0278 846.00
31.093 904.00
31.1582 902.00
31.2234 856.00
31.2886 923.00
31.3538 898.00
31.419 868.00
31.4842 957.00
31.5494 934.00
31.6146 934.00
31.6798 947.00
31.745 962.00
31.8102 1006.00
31.8754 966.00
31.9406 1127.00
32.0058 1102.00
32.071 1245.00
32.1362 1525.00
32.2014 2320.00
32.2666 4785.00
32.3318 10962.00
32.397 18848.00
32.4622 11653.00
32.5274 4945.00
32.5926 2038.00
32.6578 1417.00
32.723 1229.00
32.7882 1155.00
32.8534 966.00
32.9186 972.00
32.9838 970.00
33.0489 909.00
33.1141 868.00
33.1793 851.00
33.2445 807.00
33.3097 843.00
33.3749 880.00
33.4401 878.00
33.5053 714.00
33.5705 766.00
33.6357 762.00
33.7009 797.00
33.7661 783.00
33.8313 766.00
33.8965 715.00
33.9617 735.00
34.0269 823.00
34.0921 852.00
34.1573 943.00
34.2225 835.00
34.2877 751.00
34.3529 720.00
34.4181 752.00
34.4833 761.00
34.5485 760.00
34.6137 687.00
34.6789 777.00
34.7441 691.00
34.8093 716.00
34.8745 716.00
34.9397 789.00
35.0049 810.00
35.0701 819.00
35.1353 902.00
35.2005 1189.00
35.2657 2119.00
35.3309 4383.00
35.3961 4093.00
35.4613 2840.00
35.5265 1183.00
35.5917 916.00
35.6569 737.00
35.7221 734.00
35.7873 706.00
35.8525 660.00
35.9177 674.00
35.9829 672.00
36.0481 679.00
36.1133 628.00
36.1785 664.00
36.2437 606.00
36.3089 622.00
36.3741 633.00
36.4393 670.00
36.5045 622.00
36.5697 623.00
36.6349 580.00
36.7001 651.00
36.7653 660.00
36.8305 766.00
36.8957 734.00
36.9609 682.00
37.0261 675.00
37.0913 661.00
37.1565 787.00
37.2217 845.00
37.2869 914.00
37.3521 800.00
37.4173 706.00
37.4825 622.00
37.5477 623.00
37.6129 598.00
37.6781 622.00
37.7433 566.00
37.8085 582.00
37.8736 594.00
37.9388 577.00
38.004 542.00
38.0692 560.00
38.1344 579.00
38.1996 570.00
38.2648 591.00
38.33 613.00
38.3952 585.00
38.4604 616.00
38.5256 586.00
38.5908 551.00
38.656 581.00
38.7212 583.00
38.7864 554.00
38.8516 552.00
38.9168 558.00
38.982 547.00
39.0472 529.00
39.1124 573.00
39.1776 551.00
39.2428 549.00
39.308 587.00
39.3732 514.00
39.4384 555.00
39.5036 559.00
39.5688 536.00
39.634 545.00
39.6992 598.00
39.7644 763.00
39.8296 1153.00
39.8948 1143.00
39.96 973.00
40.0252 772.00
40.0904 662.00
40.1556 578.00
40.2208 570.00
40.286 579.00
40.3512 510.00
40.4164 519.00
40.4816 515.00
40.5468 546.00
40.612 538.00
40.6772 516.00
40.7424 528.00
40.8076 549.00
40.8728 548.00
40.938 566.00
41.0032 581.00
41.0684 537.00
41.1336 524.00
41.1988 527.00
41.264 538.00
41.3292 533.00
41.3944 573.00
41.4596 466.00
41.5248 504.00
41.59 540.00
41.6552 625.00
41.7204 560.00
41.7856 540.00
41.8508 511.00
41.916 549.00
41.9812 527.00
42.0464 547.00
42.1116 535.00
42.1768 567.00
42.242 708.00
42.3072 1123.00
42.3724 1898.00
42.4376 1202.00
42.5028 1125.00
42.568 672.00
42.6332 562.00
42.6983 597.00
42.7635 536.00
42.8287 553.00
42.8939 635.00
42.9591 679.00
43.0243 846.00
43.0895 1193.00
43.1547 2593.00
43.2199 4446.00
43.2851 2893.00
43.3503 2348.00
43.4155 990.00
43.4807 738.00
43.5459 553.00
43.6111 561.00
43.6763 524.00
43.7415 498.00
43.8067 482.00
43.8719 506.00
43.9371 485.00
44.0023 491.00
44.0675 501.00
44.1327 495.00
44.1979 553.00
44.2631 567.00
44.3283 542.00
44.3935 568.00
44.4587 502.00
44.5239 608.00
44.5891 600.00
44.6543 630.00
44.7195 580.00
44.7847 565.00
44.8499 531.00
44.9151 527.00
44.9803 550.00
45.0455 530.00
45.1107 541.00
45.1759 517.00
45.2411 528.00
45.3063 558.00
45.3715 562.00
45.4367 568.00
45.5019 578.00
45.5671 579.00
45.6323 558.00
45.6975 555.00
45.7627 661.00
45.8279 722.00
45.8931 818.00
45.9583 945.00
46.0235 1081.00
46.0887 1481.00
46.1539 2457.00
46.2191 6537.00
46.2843 17004.00
46.3495 11108.00
46.4147 10271.00
46.4799 4041.00
46.5451 1685.00
46.6103 1125.00
46.6755 925.00
46.7407 788.00
46.8059 740.00
46.8711 648.00
46.9363 637.00
47.0015 609.00
47.0667 558.00
47.1319 606.00
47.1971 606.00
47.2623 640.00
47.3275 756.00
47.3927 681.00
47.4579 700.00
47.523 586.00
47.5882 562.00
47.6534 537.00
47.7186 468.00
47.7838 495.00
47.849 527.00
47.9142 521.00
47.9794 512.00
48.0446 508.00
48.1098 476.00
48.175 479.00
48.2402 540.00
48.3054 503.00
48.3706 532.00
48.4358 643.00
48.501 1018.00
48.5662 1108.00
48.6314 829.00
48.6966 753.00
48.7618 567.00
48.827 532.00
48.8922 512.00
48.9574 450.00
49.0226 509.00
49.0878 492.00
49.153 491.00
49.2182 605.00
49.2834 567.00
49.3486 515.00
49.4138 518.00
49.479 493.00
49.5442 431.00
49.6094 473.00
49.6746 459.00
49.7398 433.00
49.805 442.00
49.8702 522.00
49.9354 591.00
50.0006 492.00
50.0658 493.00
50.131 495.00
50.1962 467.00
50.2614 479.00
50.3266 545.00
50.3918 509.00
50.457 523.00
50.5222 506.00
50.5874 491.00
50.6526 557.00
50.7178 604.00
50.783 732.00
50.8482 716.00
50.9134 632.00
50.9786 632.00
51.0438 543.00
51.109 508.00
51.1742 505.00
51.2394 464.00
51.3046 483.00
51.3698 475.00
51.435 471.00
51.5002 473.00
51.5654 470.00
51.6306 470.00
51.6958 415.00
51.761 461.00
51.8262 457.00
51.8914 494.00
51.9566 473.00
52.0218 458.00
52.087 427.00
52.1522 452.00
52.2174 462.00
52.2826 421.00
52.3477 418.00
52.4129 451.00
52.4781 443.00
52.5433 418.00
52.6085 481.00
52.6737 405.00
52.7389 416.00
52.8041 467.00
52.8693 468.00
52.9345 468.00
52.9997 484.00
53.0649 470.00
53.1301 529.00
53.1953 456.00
53.2605 487.00
53.3257 500.00
53.3909 481.00
53.4561 519.00
53.5213 521.00
53.5865 516.00
53.6517 451.00
53.7169 514.00
53.7821 477.00
53.8473 508.00
53.9125 462.00
53.9777 531.00
54.0429 505.00
54.1081 511.00
54.1733 532.00
54.2385 631.00
54.3037 610.00
54.3689 735.00
54.4341 803.00
54.4993 971.00
54.5645 1200.00
54.6297 1572.00
54.6949 2694.00
54.7601 7441.00
54.8253 17074.00
54.8905 8082.00
54.9557 9094.00
55.0209 5456.00
55.0861 1998.00
55.1513 1270.00
55.2165 969.00
55.2817 828.00
55.3469 820.00
55.4121 704.00
55.4773 665.00
55.5425 597.00
55.6077 560.00
55.6729 532.00
55.7381 509.00
55.8033 519.00
55.8685 547.00
55.9337 513.00
55.9989 513.00
56.0641 554.00
56.1293 494.00
56.1945 481.00
56.2597 489.00
56.3249 498.00
56.3901 458.00
56.4553 480.00
56.5205 504.00
56.5857 499.00
56.6509 546.00
56.7161 545.00
56.7813 495.00
56.8465 508.00
56.9117 502.00
56.9769 542.00
57.042 560.00
57.1073 582.00
57.1724 681.00
57.2376 660.00
57.3028 890.00
57.368 1484.00
57.4332 3979.00
57.4984 3966.00
57.5636 2194.00
57.6288 2967.00
57.694 1194.00
57.7592 764.00
57.8244 585.00
57.8896 597.00
57.9548 534.00
58.02 549.00
58.0852 499.00
58.1504 495.00
58.2156 458.00
58.2808 455.00
58.346 454.00
58.4112 460.00
58.4764 417.00
58.5416 437.00
58.6068 455.00
58.672 459.00
58.7372 441.00
58.8024 436.00
58.8676 437.00
58.9328 497.00
58.998 557.00
59.0632 659.00
59.1284 655.00
59.1936 687.00
59.2588 880.00
59.324 1575.00
59.3892 3459.00
59.4544 1854.00
59.5196 1792.00
59.5848 1650.00
59.65 810.00
59.7152 586.00
59.7804 533.00
59.8456 482.00
59.9108 464.00
59.976 431.00
60.0412 468.00
60.1064 415.00
60.1716 420.00
60.2368 398.00
60.302 413.00
60.3672 404.00
60.4324 432.00
60.4976 430.00
60.5628 431.00
60.628 407.00
60.6932 422.00
60.7584 397.00
60.8236 381.00
60.8888 438.00
60.954 421.00
61.0192 430.00
61.0844 466.00
61.1496 556.00
61.2148 450.00
61.28 456.00
61.3452 461.00
61.4104 414.00
61.4756 424.00
61.5408 390.00
61.606 373.00
61.6712 411.00
61.7364 429.00
61.8016 425.00
61.8667 384.00
61.932 391.00
61.9971 393.00
62.0623 411.00
62.1275 427.00
62.1927 460.00
62.2579 464.00
62.3231 455.00
62.3883 528.00
62.4535 720.00
62.5187 1392.00
62.5839 2267.00
62.6491 1314.00
62.7143 1261.00
62.7795 1268.00
62.8447 691.00
62.9099 512.00
62.9751 432.00
63.0403 428.00
63.1055 419.00
63.1707 389.00
63.2359 429.00
63.3011 414.00
63.3663 370.00
63.4315 434.00
63.4967 429.00
63.5619 406.00
63.6271 411.00
63.6923 407.00
63.7575 367.00
63.8227 404.00
63.8879 386.00
63.9531 427.00
64.0183 426.00
64.0835 455.00
64.1487 460.00
64.2139 563.00
64.2791 897.00
64.3443 1823.00
64.4095 1238.00
64.4747 898.00
64.5399 1200.00
64.6051 709.00
64.6703 511.00
64.7355 434.00
64.8007 389.00
64.8659 423.00
64.9311 364.00
64.9963 375.00
65.0615 393.00
65.1267 376.00
65.1919 418.00
65.2571 366.00
65.3223 385.00
65.3875 352.00
65.4527 363.00
65.5179 376.00
65.5831 375.00
65.6483 373.00
65.7135 360.00
65.7787 403.00
65.8439 354.00
65.9091 337.00
65.9743 386.00
66.0395 390.00
66.1047 391.00
66.1699 396.00
66.2351 354.00
66.3003 384.00
66.3655 364.00
66.4307 350.00
66.4959 386.00
66.561 384.00
66.6263 355.00
66.6915 325.00
66.7566 375.00
66.8218 418.00
66.887 433.00
66.9522 453.00
67.0174 455.00
67.0826 483.00
67.1478 521.00
67.213 603.00
67.2782 1006.00
67.3434 2108.00
67.4086 1460.00
67.4738 982.00
67.539 1385.00
67.6042 825.00
67.6694 589.00
67.7346 452.00
67.7998 426.00
67.865 343.00
67.9302 430.00
67.9954 400.00
68.0606 370.00
68.1258 393.00
68.191 356.00
68.2562 362.00
68.3214 399.00
68.3866 328.00
68.4518 385.00
68.517 389.00
68.5822 354.00
68.6474 411.00
68.7126 391.00
68.7778 406.00
68.843 438.00
68.9082 462.00
68.9734 579.00
69.0386 852.00
69.1038 1975.00
69.169 1469.00
69.2342 885.00
69.2994 1172.00
69.3646 966.00
69.4298 558.00
69.495 438.00
69.5602 423.00
69.6254 407.00
69.6906 395.00
69.7558 348.00
69.821 382.00
69.8862 344.00
69.9514 352.00
70.0166 417.00
70.0818 407.00
70.147 299.00
70.2122 338.00
70.2774 359.00
70.3426 321.00
70.4078 353.00
70.473 344.00
70.5382 343.00
70.6034 342.00
70.6686 308.00
70.7338 318.00
70.799 374.00
70.8642 327.00
70.9294 347.00
70.9946 344.00
71.0598 312.00
71.125 322.00
71.1902 379.00
71.2554 348.00
71.3205 318.00
71.3858 349.00
71.451 354.00
71.5162 351.00
71.5813 380.00
71.6465 385.00
71.7117 341.00
71.7769 377.00
71.8421 409.00
71.9073 462.00
71.9725 508.00
72.0377 606.00
72.1029 470.00
72.1681 398.00
72.2333 513.00
72.2985 414.00
72.3637 383.00
72.4289 340.00
72.4941 337.00
72.5593 331.00
72.6245 336.00
72.6897 322.00
72.7549 343.00
72.8201 357.00
72.8853 348.00
72.9505 324.00
73.0157 361.00
73.0809 342.00
73.1461 361.00
73.2113 325.00
73.2765 370.00
73.3417 407.00
73.4069 330.00
73.4721 380.00
73.5373 402.00
73.6025 455.00
73.6677 571.00
73.7329 778.00
73.7981 604.00
73.8633 582.00
73.9285 673.00
73.9937 613.00
74.0589 627.00
74.1241 775.00
74.1893 1132.00
74.2545 2849.00
74.3197 4814.00
74.3849 2049.00
74.4501 1669.00
74.5153 2819.00
74.5805 1547.00
74.6457 855.00
74.7109 589.00
74.7761 547.00
74.8413 501.00
74.9065 604.00
74.9717 624.00
75.0369 503.00
75.1021 487.00
75.1673 505.00
75.2325 403.00
75.2977 462.00
75.3629 394.00
75.4281 381.00
75.4933 377.00
75.5585 388.00
75.6237 311.00
75.6889 389.00
75.7541 354.00
75.8193 379.00
75.8845 383.00
75.9497 396.00
76.0149 402.00
76.0801 464.00
76.1452 471.00
76.2104 501.00
76.2756 521.00
76.3409 618.00
76.406 812.00
76.4712 1499.00
76.5364 3478.00
76.6016 3102.00
76.6668 1465.00
76.732 1717.00
76.7972 2378.00
76.8624 1148.00
76.9276 692.00
76.9928 538.00
77.058 489.00
77.1232 431.00
77.1884 411.00
77.2536 406.00
77.3188 417.00
77.384 365.00
77.4492 372.00
77.5144 384.00
77.5796 380.00
77.6448 364.00
77.71 394.00
77.7752 411.00
77.8404 372.00
77.9056 427.00
77.9708 432.00
78.036 440.00
78.1012 442.00
78.1664 680.00
78.2316 1179.00
78.2968 828.00
78.362 570.00
78.4272 686.00
78.4924 777.00
78.5576 520.00
78.6228 434.00
78.688 459.00
78.7532 560.00
78.8184 690.00
78.8836 895.00
78.9488 555.00
79.014 523.00
79.0792 571.00
79.1444 559.00
79.2096 393.00
79.2748 368.00
79.34 320.00
79.4052 367.00
79.4704 350.00
79.5356 358.00
79.6008 370.00
79.666 308.00
79.7312 332.00
79.7964 345.00
79.8616 341.00
79.9268 339.00
79.992 333.00
80.0572 358.00
80.1224 333.00
80.1876 360.00
80.2528 352.00
80.318 314.00
80.3832 370.00
80.4484 333.00
80.5136 317.00
80.5788 336.00
80.644 336.00
80.7092 382.00
80.7744 384.00
80.8396 391.00
80.9048 375.00
80.9699 357.00
81.0351 358.00
81.1003 335.00
81.1655 345.00
81.2307 311.00
81.2959 343.00
81.3611 336.00
81.4263 330.00
81.4915 329.00
81.5567 317.00
81.6219 339.00
81.6871 403.00
81.7523 351.00
81.8175 365.00
81.8827 339.00
81.9479 370.00
82.0131 338.00
82.0783 352.00
82.1435 313.00
82.2087 368.00
82.2739 358.00
82.3391 349.00
82.4043 347.00
82.4695 380.00
82.5347 399.00
82.5999 494.00
82.6651 745.00
82.7303 619.00
82.7955 429.00
82.8607 444.00
82.9259 572.00
82.9911 463.00
83.0563 348.00
83.1215 334.00
83.1867 342.00
83.2519 325.00
83.3171 339.00
83.3823 326.00
83.4475 311.00
83.5127 296.00
83.5779 309.00
83.6431 311.00
83.7083 334.00
83.7735 318.00
83.8387 297.00
83.9039 328.00
83.9691 347.00
84.0343 309.00
84.0995 302.00
84.1647 347.00
84.2299 336.00
84.2951 331.00
84.3603 337.00
84.4255 314.00
84.4907 367.00
84.5559 326.00
84.6211 319.00
84.6863 314.00
84.7515 366.00
84.8167 330.00
84.8819 376.00
84.9471 387.00
85.0123 431.00
85.0775 390.00
85.1427 441.00
85.2079 524.00
85.2731 667.00
85.3383 1085.00
85.4035 2421.00
85.4687 1665.00
85.5339 923.00
85.5991 893.00
85.6643 1444.00
85.7295 1098.00
85.7946 602.00
85.8598 462.00
85.925 411.00
85.9903 406.00
86.0554 381.00
86.1206 379.00
86.1858 316.00
86.251 293.00
86.3162 321.00
86.3814 357.00
86.4466 349.00
86.5118 345.00
86.577 347.00
86.6422 346.00
86.7074 336.00
86.7726 357.00
86.8378 343.00
86.903 436.00
86.9682 483.00
87.0334 807.00
87.0986 689.00
87.1638 447.00
87.229 446.00
87.2942 529.00
87.3594 569.00
87.4246 404.00
87.4898 396.00
87.555 313.00
87.6202 386.00
87.6854 281.00
87.7506 319.00
87.8158 319.00
87.881 342.00
87.9462 289.00
88.0114 335.00
88.0766 302.00
88.1418 309.00
88.207 340.00
88.2722 308.00
88.3374 335.00
88.4026 318.00
88.4678 319.00
88.533 322.00
88.5982 313.00
88.6634 325.00
88.7286 328.00
88.7938 356.00
88.859 351.00
88.9242 337.00
88.9894 276.00
89.0546 323.00
89.1198 313.00
89.185 330.00
89.2502 304.00
89.3154 308.00
89.3806 356.00
89.4458 344.00
89.511 343.00
89.5762 356.00
89.6414 345.00
89.7066 366.00
89.7718 397.00
89.837 387.00
89.9022 334.00
89.9674 359.00
90.0326 422.00
90.0978 322.00
90.163 303.00
90.2282 343.00
90.2934 335.00
90.3586 357.00
90.4238 334.00
90.489 343.00
90.5542 357.00
90.6193 377.00
90.6845 336.00
90.7497 339.00
90.8149 352.00
90.8801 382.00
90.9453 395.00
91.0105 395.00
91.0757 394.00
91.1409 417.00
91.2061 493.00
91.2713 583.00
91.3365 902.00
91.4017 1712.00
91.4669 1596.00
91.5321 927.00
91.5973 826.00
91.6625 988.00
91.7277 1264.00
91.7929 1024.00
91.8581 1031.00
91.9233 1884.00
91.9885 2721.00
92.0537 1303.00
92.1189 946.00
92.1841 1000.00
92.2493 1519.00
92.3145 1243.00
92.3797 663.00
92.4449 558.00
92.5101 464.00
92.5753 424.00
92.6405 413.00
92.7057 423.00
92.7709 345.00
92.8361 353.00
92.9013 356.00
92.9665 364.00
93.0317 306.00
93.0969 326.00
93.1621 357.00
93.2273 322.00
93.2925 330.00
93.3577 318.00
93.4229 313.00
93.4881 355.00
93.5533 332.00
93.6185 330.00
93.6837 318.00
93.7489 303.00
93.8141 355.00
93.8793 377.00
93.9445 313.00
94.0097 318.00
94.0749 374.00
94.1401 385.00
94.2053 435.00
94.2705 474.00
94.3357 409.00
94.4009 358.00
94.4661 358.00
94.5313 412.00
94.5965 370.00
94.6617 343.00
94.7269 316.00
94.7921 307.00
94.8573 334.00
94.9225 301.00
94.9877 331.00
95.0529 345.00
95.1181 330.00
95.1833 352.00
95.2485 353.00
95.3137 304.00
95.3789 368.00
95.444 341.00
95.5092 361.00
95.5744 349.00
95.6396 397.00
95.7048 497.00
95.77 684.00
95.8352 640.00
95.9004 456.00
95.9656 426.00
96.0308 433.00
96.096 508.00
96.1612 482.00
96.2264 385.00
96.2916 422.00
96.3568 411.00
96.422 342.00
96.4872 363.00
96.5524 283.00
96.6176 348.00
96.6828 323.00
96.748 346.00
96.8132 293.00
96.8784 333.00
96.9436 300.00
97.0088 314.00
97.074 319.00
97.1392 303.00
97.2044 244.00
97.2696 301.00
97.3348 296.00
97.4 301.00
97.4652 316.00
97.5304 308.00
97.5956 271.00
97.6608 339.00
97.726 276.00
97.7912 312.00
97.8564 300.00
97.9216 329.00
97.9868 323.00
98.052 296.00
98.1172 284.00
98.1824 351.00
98.2476 271.00
98.3128 283.00
98.378 305.00
98.4432 334.00
98.5084 330.00
98.5736 320.00
98.6388 310.00
98.704 323.00
98.7692 303.00
98.8344 311.00
98.8996 300.00
98.9648 271.00
99.03 332.00
99.0952 348.00
99.1604 284.00
99.2256 260.00
99.2908 309.00
99.356 283.00
99.4212 291.00
99.4864 305.00
99.5516 277.00
99.6168 279.00
99.682 313.00
99.7472 321.00
99.8124 336.00
99.8776 316.00
99.9428 305.00
100.008 369.00
100.073 385.00
100.095 429.00