File: data/xrd_creation/results/PG_2650-1.xy
9.903433 2963.00
9.968632 2866.00
10.0338 2867.00
10.099 2845.00
10.1642 2910.00
10.2294 2913.00
10.2946 2856.00
10.3598 2734.00
10.425 2880.00
10.4902 2709.00
10.5554 2722.00
10.6206 2736.00
10.6858 2758.00
10.751 2744.00
10.8162 2689.00
10.8814 2666.00
10.9466 2603.00
11.0118 2708.00
11.077 2689.00
11.1422 2702.00
11.2074 2645.00
11.2726 2609.00
11.3378 2646.00
11.403 2640.00
11.4682 2549.00
11.5334 2628.00
11.5986 2554.00
11.6638 2549.00
11.729 2485.00
11.7942 2389.00
11.8594 2620.00
11.9246 2513.00
11.9898 2519.00
12.055 2528.00
12.1202 2478.00
12.1854 2524.00
12.2506 2436.00
12.3158 2426.00
12.381 2486.00
12.4462 2395.00
12.5114 2363.00
12.5766 2373.00
12.6418 2342.00
12.707 2438.00
12.7722 2367.00
12.8374 2406.00
12.9026 2347.00
12.9678 2336.00
13.033 2359.00
13.0982 2273.00
13.1634 2307.00
13.2286 2298.00
13.2938 2366.00
13.359 2313.00
13.4242 2353.00
13.4894 2298.00
13.5546 2210.00
13.6198 2253.00
13.685 2233.00
13.7502 2301.00
13.8154 2251.00
13.8805 2329.00
13.9457 2284.00
14.0109 2331.00
14.0761 2281.00
14.1413 2294.00
14.2065 2297.00
14.2717 2405.00
14.3369 2336.00
14.4021 2307.00
14.4673 2313.00
14.5325 2300.00
14.5977 2303.00
14.6629 2322.00
14.7281 2378.00
14.7933 2295.00
14.8585 2233.00
14.9237 2264.00
14.9889 2305.00
15.0541 2360.00
15.1193 2298.00
15.1845 2283.00
15.2497 2228.00
15.3149 2302.00
15.3801 2217.00
15.4453 2265.00
15.5105 2322.00
15.5757 2401.00
15.6409 2418.00
15.7061 2410.00
15.7713 2539.00
15.8365 2613.00
15.9017 2784.00
15.9669 2877.00
16.0321 2544.00
16.0973 2349.00
16.1625 2316.00
16.2277 2401.00
16.2929 2189.00
16.3581 2216.00
16.4233 2291.00
16.4885 2272.00
16.5537 2250.00
16.6189 2308.00
16.6841 2284.00
16.7493 2341.00
16.8145 2242.00
16.8797 2330.00
16.9449 2426.00
17.0101 2286.00
17.0753 2274.00
17.1405 2384.00
17.2057 2255.00
17.2709 2180.00
17.3361 2272.00
17.4013 2207.00
17.4665 2243.00
17.5317 2230.00
17.5969 2137.00
17.6621 2274.00
17.7273 2252.00
17.7925 2156.00
17.8577 2302.00
17.9229 2167.00
17.9881 2143.00
18.0533 2233.00
18.1185 2264.00
18.1837 2193.00
18.2489 2327.00
18.3141 2275.00
18.3793 2288.00
18.4445 2211.00
18.5097 2176.00
18.5749 2131.00
18.6401 2167.00
18.7052 2239.00
18.7704 2154.00
18.8356 2159.00
18.9008 2120.00
18.966 2191.00
19.0312 2182.00
19.0964 2176.00
19.1616 2088.00
19.2268 2225.00
19.292 2164.00
19.3572 2185.00
19.4224 2121.00
19.4876 2082.00
19.5528 2240.00
19.618 2143.00
19.6832 2195.00
19.7484 2142.00
19.8136 2081.00
19.8788 2118.00
19.944 2111.00
20.0092 2153.00
20.0744 2151.00
20.1396 2118.00
20.2048 2213.00
20.27 2186.00
20.3352 2181.00
20.4004 2280.00
20.4656 2296.00
20.5308 2378.00
20.596 2463.00
20.6612 2645.00
20.7264 3182.00
20.7916 3889.00
20.8568 3842.00
20.922 2895.00
20.9872 2235.00
21.0524 2188.00
21.1176 2051.00
21.1828 2225.00
21.248 2143.00
21.3132 2218.00
21.3784 2056.00
21.4436 2095.00
21.5088 2107.00
21.574 2028.00
21.6392 2099.00
21.7044 2034.00
21.7696 2158.00
21.8348 1962.00
21.9 2046.00
21.9652 2096.00
22.0304 2181.00
22.0956 2076.00
22.1608 2023.00
22.226 2056.00
22.2912 2086.00
22.3564 2062.00
22.4216 2041.00
22.4868 2053.00
22.552 2052.00
22.6172 2037.00
22.6824 2047.00
22.7476 2189.00
22.8128 2138.00
22.878 2002.00
22.9432 2132.00
23.0084 2234.00
23.0736 2356.00
23.1388 2487.00
23.204 2480.00
23.2692 2372.00
23.3344 2189.00
23.3996 2090.00
23.4647 2096.00
23.5299 2165.00
23.5951 2092.00
23.6603 2097.00
23.7255 2116.00
23.7907 2010.00
23.8559 2046.00
23.9211 2008.00
23.9863 2005.00
24.0515 2129.00
24.1167 2004.00
24.1819 2048.00
24.2471 1989.00
24.3123 1948.00
24.3775 2051.00
24.4427 1996.00
24.5079 2023.00
24.5731 2089.00
24.6383 2138.00
24.7035 2110.00
24.7687 2193.00
24.8339 2143.00
24.8991 2088.00
24.9643 1977.00
25.0295 2036.00
25.0947 1969.00
25.1599 2085.00
25.2251 2030.00
25.2903 2016.00
25.3555 1980.00
25.4207 1980.00
25.4859 2083.00
25.5511 1983.00
25.6163 1958.00
25.6815 1986.00
25.7467 1995.00
25.8119 1966.00
25.8771 2010.00
25.9423 1916.00
26.0075 2001.00
26.0727 1984.00
26.1379 2076.00
26.2031 2071.00
26.2683 2015.00
26.3335 1982.00
26.3987 2021.00
26.4639 2011.00
26.5291 2004.00
26.5943 2033.00
26.6595 2014.00
26.7247 2008.00
26.7899 2031.00
26.8551 2005.00
26.9203 1917.00
26.9855 2028.00
27.0507 2047.00
27.1159 2035.00
27.1811 1909.00
27.2463 1945.00
27.3115 2046.00
27.3767 1937.00
27.4419 1963.00
27.5071 2092.00
27.5723 2002.00
27.6375 1968.00
27.7027 2021.00
27.7679 1889.00
27.8331 2013.00
27.8983 1976.00
27.9635 1945.00
28.0287 1966.00
28.0939 1957.00
28.1591 2099.00
28.2243 1995.00
28.2894 2026.00
28.3546 2086.00
28.4198 2177.00
28.485 2143.00
28.5502 2070.00
28.6154 2183.00
28.6806 2114.00
28.7458 2152.00
28.811 2248.00
28.8762 2261.00
28.9414 2506.00
29.0066 2678.00
29.0718 3146.00
29.137 3946.00
29.2022 5243.00
29.2674 7060.00
29.3326 10266.00
29.3978 16740.00
29.463 24064.00
29.5282 17496.00
29.5934 8509.00
29.6586 4112.00
29.7238 3084.00
29.789 2770.00
29.8542 2560.00
29.9194 2472.00
29.9846 2369.00
30.0498 2472.00
30.115 2830.00
30.1802 3510.00
30.2454 4394.00
30.3106 5402.00
30.3758 5638.00
30.441 5025.00
30.5062 3648.00
30.5714 2681.00
30.6366 2383.00
30.7018 2199.00
30.767 2195.00
30.8322 2127.00
30.8974 2087.00
30.9626 2161.00
31.0278 2057.00
31.093 2191.00
31.1582 2085.00
31.2234 2116.00
31.2886 2379.00
31.3538 2643.00
31.419 2547.00
31.4842 2426.00
31.5494 2369.00
31.6146 2663.00
31.6798 3257.00
31.745 3995.00
31.8102 4186.00
31.8754 4138.00
31.9406 3282.00
32.0058 2706.00
32.071 2433.00
32.1362 2174.00
32.2014 2136.00
32.2666 2080.00
32.3318 2129.00
32.397 2056.00
32.4622 2028.00
32.5274 2253.00
32.5926 2675.00
32.6578 2644.00
32.723 2476.00
32.7882 2169.00
32.8534 2117.00
32.9186 2138.00
32.9838 2287.00
33.0489 2519.00
33.1141 2874.00
33.1793 3710.00
33.2445 4976.00
33.3097 6818.00
33.3749 7668.00
33.4401 7358.00
33.5053 5448.00
33.5705 3634.00
33.6357 2702.00
33.7009 2455.00
33.7661 2306.00
33.8313 2448.00
33.8965 2614.00
33.9617 3401.00
34.0269 5162.00
34.0921 7196.00
34.1573 5913.00
34.2225 4009.00
34.2877 2845.00
34.3529 2530.00
34.4181 2284.00
34.4833 2082.00
34.5485 1996.00
34.6137 2025.00
34.6789 1944.00
34.7441 1916.00
34.8093 1857.00
34.8745 1871.00
34.9397 1964.00
35.0049 1942.00
35.0701 1886.00
35.1353 1924.00
35.2005 1968.00
35.2657 1904.00
35.3309 1940.00
35.3961 1782.00
35.4613 1927.00
35.5265 1859.00
35.5917 1996.00
35.6569 1987.00
35.7221 1930.00
35.7873 1950.00
35.8525 2124.00
35.9177 2174.00
35.9829 2162.00
36.0481 2272.00
36.1133 2547.00
36.1785 3067.00
36.2437 3131.00
36.3089 2810.00
36.3741 2926.00
36.4393 2777.00
36.5045 2471.00
36.5697 2004.00
36.6349 1910.00
36.7001 1927.00
36.7653 2008.00
36.8305 1919.00
36.8957 1914.00
36.9609 1919.00
37.0261 1859.00
37.0913 1923.00
37.1565 1871.00
37.2217 1831.00
37.2869 1955.00
37.3521 1956.00
37.4173 1931.00
37.4825 2122.00
37.5477 2143.00
37.6129 2053.00
37.6781 2088.00
37.7433 1994.00
37.8085 2070.00
37.8736 2008.00
37.9388 2158.00
38.004 1961.00
38.0692 2047.00
38.1344 2094.00
38.1996 2157.00
38.2648 2356.00
38.33 2188.00
38.3952 2018.00
38.4604 1921.00
38.5256 2052.00
38.5908 2013.00
38.656 1911.00
38.7212 1906.00
38.7864 1854.00
38.8516 1931.00
38.9168 1885.00
38.982 1849.00
39.0472 1899.00
39.1124 1895.00
39.1776 1863.00
39.2428 1858.00
39.308 1818.00
39.3732 1842.00
39.4384 1927.00
39.5036 1890.00
39.5688 1812.00
39.634 1897.00
39.6992 1885.00
39.7644 1876.00
39.8296 1936.00
39.8948 1940.00
39.96 1978.00
40.0252 2228.00
40.0904 2778.00
40.1556 3163.00
40.2208 2671.00
40.286 2455.00
40.3512 2028.00
40.4164 1941.00
40.4816 1882.00
40.5468 1951.00
40.612 1765.00
40.6772 1897.00
40.7424 1883.00
40.8076 1822.00
40.8728 1840.00
40.938 1832.00
41.0032 1749.00
41.0684 1898.00
41.1336 1733.00
41.1988 1863.00
41.264 1808.00
41.3292 1793.00
41.3944 1896.00
41.4596 1889.00
41.5248 1851.00
41.59 1781.00
41.6552 1872.00
41.7204 1764.00
41.7856 1757.00
41.8508 1873.00
41.916 1923.00
41.9812 2003.00
42.0464 2117.00
42.1116 2111.00
42.1768 1989.00
42.242 1924.00
42.3072 1856.00
42.3724 1798.00
42.4376 1856.00
42.5028 1814.00
42.568 1908.00
42.6332 1843.00
42.6983 1776.00
42.7635 1891.00
42.8287 1833.00
42.8939 1950.00
42.9591 1803.00
43.0243 1949.00
43.0895 1856.00
43.1547 1877.00
43.2199 2006.00
43.2851 1986.00
43.3503 2130.00
43.4155 2377.00
43.4807 2817.00
43.5459 3412.00
43.6111 3800.00
43.6763 4062.00
43.7415 4491.00
43.8067 4523.00
43.8719 3486.00
43.9371 2739.00
44.0023 2322.00
44.0675 2043.00
44.1327 1974.00
44.1979 1897.00
44.2631 1951.00
44.3283 1861.00
44.3935 1916.00
44.4587 1943.00
44.5239 1892.00
44.5891 1876.00
44.6543 1900.00
44.7195 2067.00
44.7847 2015.00
44.8499 1875.00
44.9151 1895.00
44.9803 1800.00
45.0455 1874.00
45.1107 1851.00
45.1759 1877.00
45.2411 1856.00
45.3063 1771.00
45.3715 1879.00
45.4367 1823.00
45.5019 1767.00
45.5671 1853.00
45.6323 1787.00
45.6975 1822.00
45.7627 1760.00
45.8279 1828.00
45.8931 1838.00
45.9583 1860.00
46.0235 1786.00
46.0887 1838.00
46.1539 1922.00
46.2191 1916.00
46.2843 1982.00
46.3495 1947.00
46.4147 1897.00
46.4799 1840.00
46.5451 1902.00
46.6103 1805.00
46.6755 1871.00
46.7407 1816.00
46.8059 1870.00
46.8711 1881.00
46.9363 1948.00
47.0015 2013.00
47.0667 2056.00
47.1319 2392.00
47.1971 2502.00
47.2623 2286.00
47.3275 2248.00
47.3927 2017.00
47.4579 1968.00
47.523 1976.00
47.5882 1869.00
47.6534 1883.00
47.7186 2015.00
47.7838 2037.00
47.849 1998.00
47.9142 1946.00
47.9794 1940.00
48.0446 1972.00
48.1098 2051.00
48.175 2012.00
48.2402 2091.00
48.3054 2136.00
48.3706 1981.00
48.4358 2096.00
48.501 2246.00
48.5662 2363.00
48.6314 2809.00
48.6966 4245.00
48.7618 7830.00
48.827 10811.00
48.8922 8062.00
48.9574 7036.00
49.0226 4255.00
49.0878 2840.00
49.153 2363.00
49.2182 2070.00
49.2834 2016.00
49.3486 1974.00
49.4138 1905.00
49.479 1908.00
49.5442 1970.00
49.6094 1907.00
49.6746 1901.00
49.7398 1916.00
49.805 1918.00
49.8702 1974.00
49.9354 2101.00
50.0006 2200.00
50.0658 2515.00
50.131 2516.00
50.1962 2524.00
50.2614 2452.00
50.3266 2332.00
50.3918 2487.00
50.457 2339.00
50.5222 2169.00
50.5874 2152.00
50.6526 1975.00
50.7178 1905.00
50.783 1928.00
50.8482 1973.00
50.9134 2129.00
50.9786 2150.00
51.0438 2048.00
51.109 2017.00
51.1742 2199.00
51.2394 2365.00
51.3046 2532.00
51.3698 2886.00
51.435 3292.00
51.5002 3629.00
51.5654 4107.00
51.6306 4155.00
51.6958 4129.00
51.761 4136.00
51.8262 3645.00
51.8914 3117.00
51.9566 2648.00
52.0218 2389.00
52.087 2168.00
52.1522 1955.00
52.2174 1984.00
52.2826 1930.00
52.3477 1905.00
52.4129 1949.00
52.4781 1843.00
52.5433 1946.00
52.6085 1896.00
52.6737 1791.00
52.7389 1810.00
52.8041 1889.00
52.8693 1825.00
52.9345 1816.00
52.9997 1828.00
53.0649 1823.00
53.1301 1944.00
53.1953 1819.00
53.2605 1932.00
53.3257 2040.00
53.3909 2184.00
53.4561 2589.00
53.5213 2761.00
53.5865 2484.00
53.6517 2406.00
53.7169 2014.00
53.7821 1923.00
53.8473 1997.00
53.9125 1842.00
53.9777 1835.00
54.0429 1965.00
54.1081 1938.00
54.1733 2038.00
54.2385 2142.00
54.3037 2045.00
54.3689 2053.00
54.4341 2041.00
54.4993 1933.00
54.5645 1941.00
54.6297 1796.00
54.6949 1860.00
54.7601 1892.00
54.8253 1830.00
54.8905 1949.00
54.9557 2109.00
55.0209 2091.00
55.0861 1991.00
55.1513 1984.00
55.2165 1940.00
55.2817 1952.00
55.3469 1795.00
55.4121 1980.00
55.4773 1857.00
55.5425 1850.00
55.6077 1903.00
55.6729 1848.00
55.7381 1927.00
55.8033 1873.00
55.8685 1838.00
55.9337 1945.00
55.9989 1967.00
56.0641 2095.00
56.1293 2071.00
56.1945 2097.00
56.2597 2222.00
56.3249 2196.00
56.3901 2578.00
56.4553 2815.00
56.5205 2359.00
56.5857 2365.00
56.6509 2219.00
56.7161 1918.00
56.7813 1918.00
56.8465 1952.00
56.9117 1950.00
56.9769 1910.00
57.042 1974.00
57.1073 2133.00
57.1724 2305.00
57.2376 2537.00
57.3028 2684.00
57.368 2945.00
57.4332 2836.00
57.4984 2793.00
57.5636 2649.00
57.6288 2695.00
57.694 2805.00
57.7592 3381.00
57.8244 5092.00
57.8896 7472.00
57.9548 5761.00
58.02 5309.00
58.0852 4445.00
58.1504 2964.00
58.2156 2417.00
58.2808 2117.00
58.346 1968.00
58.4112 2008.00
58.4764 1940.00
58.5416 1949.00
58.6068 1881.00
58.672 1913.00
58.7372 1990.00
58.8024 2071.00
58.8676 2059.00
58.9328 1971.00
58.998 2026.00
59.0632 2034.00
59.1284 2024.00
59.1936 2181.00
59.2588 2618.00
59.324 3006.00
59.3892 2571.00
59.4544 2695.00
59.5196 2354.00
59.5848 2051.00
59.65 2039.00
59.7152 1874.00
59.7804 1874.00
59.8456 1941.00
59.9108 1991.00
59.976 1991.00
60.0412 2296.00
60.1064 2634.00
60.1716 2467.00
60.2368 2458.00
60.302 2478.00
60.3672 2327.00
60.4324 2245.00
60.4976 2217.00
60.5628 2246.00
60.628 2534.00
60.6932 2989.00
60.7584 2785.00
60.8236 2667.00
60.8888 2581.00
60.954 2374.00
61.0192 2114.00
61.0844 2122.00
61.1496 2090.00
61.2148 1975.00
61.28 2070.00
61.3452 1957.00
61.4104 2015.00
61.4756 2165.00
61.5408 2257.00
61.606 2502.00
61.6712 2697.00
61.7364 2985.00
61.8016 3056.00
61.8667 3059.00
61.932 2946.00
61.9971 2767.00
62.0623 2692.00
62.1275 2476.00
62.1927 2339.00
62.2579 2137.00
62.3231 2118.00
62.3883 2116.00
62.4535 2122.00
62.5187 2202.00
62.5839 2244.00
62.6491 2326.00
62.7143 2399.00
62.7795 2294.00
62.8447 2326.00
62.9099 2345.00
62.9751 2282.00
63.0403 2105.00
63.1055 2019.00
63.1707 1896.00
63.2359 1921.00
63.3011 1963.00
63.3663 1953.00
63.4315 2108.00
63.4967 2098.00
63.5619 1959.00
63.6271 1981.00
63.6923 1868.00
63.7575 1830.00
63.8227 1816.00
63.8879 1790.00
63.9531 1848.00
64.0183 1764.00
64.0835 1830.00
64.1487 1896.00
64.2139 1860.00
64.2791 1833.00
64.3443 1798.00
64.4095 1815.00
64.4747 1854.00
64.5399 1867.00
64.6051 1865.00
64.6703 1950.00
64.7355 2167.00
64.8007 2335.00
64.8659 2320.00
64.9311 2463.00
64.9963 2316.00
65.0615 2073.00
65.1267 2166.00
65.1919 2049.00
65.2571 1961.00
65.3223 1988.00
65.3875 2028.00
65.4527 1922.00
65.5179 1871.00
65.5831 1997.00
65.6483 1987.00
65.7135 1887.00
65.7787 1951.00
65.8439 1879.00
65.9091 2009.00
65.9743 1951.00
66.0395 2117.00
66.1047 2156.00
66.1699 2194.00
66.2351 2052.00
66.3003 2056.00
66.3655 1935.00
66.4307 1898.00
66.4959 1923.00
66.561 1816.00
66.6263 1784.00
66.6915 1825.00
66.7566 1832.00
66.8218 1697.00
66.887 1830.00
66.9522 1811.00
67.0174 1846.00
67.0826 1711.00
67.1478 1802.00
67.213 1769.00
67.2782 1848.00
67.3434 1771.00
67.4086 1749.00
67.4738 1790.00
67.539 1748.00
67.6042 1794.00
67.6694 1806.00
67.7346 1768.00
67.7998 1798.00
67.865 1981.00
67.9302 1902.00
67.9954 1923.00
68.0606 1999.00
68.1258 1969.00
68.191 2015.00
68.2562 2002.00
68.3214 2070.00
68.3866 1954.00
68.4518 1896.00
68.517 1973.00
68.5822 1882.00
68.6474 1913.00
68.7126 1873.00
68.7778 1831.00
68.843 1897.00
68.9082 1864.00
68.9734 1786.00
69.0386 1881.00
69.1038 1852.00
69.169 1822.00
69.2342 1901.00
69.2994 1798.00
69.3646 1804.00
69.4298 1836.00
69.495 1944.00
69.5602 1970.00
69.6254 2065.00
69.6906 2095.00
69.7558 2047.00
69.821 1971.00
69.8862 2142.00
69.9514 2024.00
70.0166 2224.00
70.0818 2193.00
70.147 1999.00
70.2122 2065.00
70.2774 2005.00
70.3426 1819.00
70.4078 1848.00
70.473 1779.00
70.5382 1719.00
70.6034 1713.00
70.6686 1866.00
70.7338 1767.00
70.799 1754.00
70.8642 1779.00
70.9294 1760.00
70.9946 1813.00
71.0598 1797.00
71.125 1912.00
71.1902 1978.00
71.2554 2217.00
71.3205 2572.00
71.3858 2335.00
71.451 2182.00
71.5162 2277.00
71.5813 2122.00
71.6465 1869.00
71.7117 1877.00
71.7769 1794.00
71.8421 1836.00
71.9073 1882.00
71.9725 1814.00
72.0377 1742.00
72.1029 1831.00
72.1681 1833.00
72.2333 1788.00
72.2985 1873.00
72.3637 1882.00
72.4289 1823.00
72.4941 2090.00
72.5593 2405.00
72.6245 2383.00
72.6897 2110.00
72.7549 2137.00
72.8201 2171.00
72.8853 2012.00
72.9505 1852.00
73.0157 1772.00
73.0809 1854.00
73.1461 1916.00
73.2113 1807.00
73.2765 1844.00
73.3417 1862.00
73.4069 1797.00
73.4721 1812.00
73.5373 1754.00
73.6025 1884.00
73.6677 1911.00
73.7329 1874.00
73.7981 2099.00
73.8633 2176.00
73.9285 1991.00
73.9937 1998.00
74.0589 1926.00
74.1241 1877.00
74.1893 1914.00
74.2545 1830.00
74.3197 1908.00
74.3849 1936.00
74.4501 1929.00
74.5153 1882.00
74.5805 1806.00
74.6457 1952.00
74.7109 1867.00
74.7761 1853.00
74.8413 1872.00
74.9065 1880.00
74.9717 1956.00
75.0369 1970.00
75.1021 2065.00
75.1673 2027.00
75.2325 1954.00
75.2977 1979.00
75.3629 1952.00
75.4281 1847.00
75.4933 1770.00
75.5585 1831.00
75.6237 1813.00
75.6889 1859.00
75.7541 1855.00
75.8193 1825.00
75.8845 1799.00
75.9497 1765.00
76.0149 1744.00
76.0801 1840.00
76.1452 1927.00
76.2104 1977.00
76.2756 1935.00
76.3409 2073.00
76.406 2039.00
76.4712 1944.00
76.5364 1979.00
76.6016 1941.00
76.6668 1842.00
76.732 1843.00
76.7972 1862.00
76.8624 1863.00
76.9276 1797.00
76.9928 1773.00
77.058 1753.00
77.1232 1742.00
77.1884 1828.00
77.2536 1891.00
77.3188 1772.00
77.384 1825.00
77.4492 1881.00
77.5144 2133.00
77.5796 2391.00
77.6448 2237.00
77.71 2073.00
77.7752 2112.00
77.8404 2152.00
77.9056 1948.00
77.9708 1915.00
78.036 1895.00
78.1012 1825.00
78.1664 1830.00
78.2316 1875.00
78.2968 1809.00
78.362 1817.00
78.4272 1851.00
78.4924 1966.00
78.5576 1853.00
78.6228 1925.00
78.688 2113.00
78.7532 2521.00
78.8184 3075.00
78.8836 2889.00
78.9488 2358.00
79.014 2514.00
79.0792 2478.00
79.1444 2202.00
79.2096 1964.00
79.2748 1862.00
79.34 1892.00
79.4052 1793.00
79.4704 1851.00
79.5356 1752.00
79.6008 1838.00
79.666 1793.00
79.7312 1721.00
79.7964 1809.00
79.8616 1766.00
79.9268 1837.00
79.992 1853.00
80.0572 1878.00
80.1224 1831.00
80.1876 1870.00
80.2528 1896.00
80.318 1980.00
80.3832 1964.00
80.4484 1967.00
80.5136 2025.00
80.5788 2084.00
80.644 1929.00
80.7092 2096.00
80.7744 2030.00
80.8396 1967.00
80.9048 1976.00
80.9699 2016.00
81.0351 2013.00
81.1003 2036.00
81.1655 2135.00
81.2307 2386.00
81.2959 2657.00
81.3611 2290.00
81.4263 2219.00
81.4915 2222.00
81.5567 2334.00
81.6219 2037.00
81.6871 1839.00
81.7523 1855.00
81.8175 1863.00
81.8827 1777.00
81.9479 1805.00
82.0131 1834.00
82.0783 1814.00
82.1435 1737.00
82.2087 1848.00
82.2739 1827.00
82.3391 1875.00
82.4043 1905.00
82.4695 1951.00
82.5347 1992.00
82.5999 1921.00
82.6651 1923.00
82.7303 1957.00
82.7955 2027.00
82.8607 1912.00
82.9259 1986.00
82.9911 1967.00
83.0563 1977.00
83.1215 2151.00
83.1867 2040.00
83.2519 1966.00
83.3171 2126.00
83.3823 1985.00
83.4475 2085.00
83.5127 2065.00
83.5779 2119.00
83.6431 2017.00
83.7083 2210.00
83.7735 1955.00
83.8387 2018.00
83.9039 2080.00
83.9691 1977.00
84.0343 1966.00
84.0995 1794.00
84.1647 1824.00
84.2299 1879.00
84.2951 1843.00
84.3603 1862.00
84.4255 1922.00
84.4907 1792.00
84.5559 1862.00
84.6211 1868.00
84.6863 1852.00
84.7515 1919.00
84.8167 2059.00
84.8819 2231.00
84.9471 2340.00
85.0123 2250.00
85.0775 2280.00
85.1427 2223.00
85.2079 2234.00
85.2731 2265.00
85.3383 2135.00
85.4035 2149.00
85.4687 2122.00
85.5339 2099.00
85.5991 2068.00
85.6643 1981.00
85.7295 1974.00
85.7946 1806.00
85.8598 1802.00
85.925 1882.00
85.9903 1945.00
86.0554 1827.00
86.1206 1837.00
86.1858 1848.00
86.251 1943.00
86.3162 1819.00
86.3814 1867.00
86.4466 1941.00
86.5118 1806.00
86.577 1782.00
86.6422 1793.00
86.7074 1938.00
86.7726 1877.00
86.8378 1834.00
86.903 1844.00
86.9682 1860.00
87.0334 1842.00
87.0986 1878.00
87.1638 1968.00
87.229 2002.00
87.2942 2113.00
87.3594 2225.00
87.4246 2051.00
87.4898 2154.00
87.555 2088.00
87.6202 2174.00
87.6854 2137.00
87.7506 1951.00
87.8158 1948.00
87.881 1960.00
87.9462 1881.00
88.0114 2016.00
88.0766 2093.00
88.1418 2025.00
88.207 2047.00
88.2722 1984.00
88.3374 2078.00
88.4026 1990.00
88.4678 1959.00
88.533 1877.00
88.5982 1867.00
88.6634 1978.00
88.7286 1844.00
88.7938 1806.00
88.859 1828.00
88.9242 1795.00
88.9894 1811.00
89.0546 1855.00
89.1198 1849.00
89.185 1847.00
89.2502 1849.00
89.3154 1784.00
89.3806 1825.00
89.4458 1842.00
89.511 1863.00
89.5762 1882.00
89.6414 1864.00
89.7066 2054.00
89.7718 2192.00
89.837 2149.00
89.9022 2034.00
89.9674 2052.00
90.0326 2074.00
90.0978 2038.00
90.163 1944.00
90.2282 1827.00
90.2934 1957.00
90.3586 1873.00
90.4238 1783.00
90.489 1873.00
90.5542 1827.00
90.6193 1905.00
90.6845 1876.00
90.7497 1938.00
90.8149 1995.00
90.8801 2303.00
90.9453 2620.00
91.0105 2569.00
91.0757 2363.00
91.1409 2203.00
91.2061 2347.00
91.2713 2254.00
91.3365 2139.00
91.4017 2079.00
91.4669 2042.00
91.5321 2060.00
91.5973 1965.00
91.6625 1927.00
91.7277 1972.00
91.7929 1949.00
91.8581 1972.00
91.9233 1982.00
91.9885 1896.00
92.0537 1988.00
92.1189 2150.00
92.1841 2268.00
92.2493 2070.00
92.3145 1993.00
92.3797 1953.00
92.4449 2010.00
92.5101 2040.00
92.5753 1898.00
92.6405 1884.00
92.7057 1860.00
92.7709 1825.00
92.8361 1876.00
92.9013 1794.00
92.9665 1889.00
93.0317 1921.00
93.0969 1936.00
93.1621 1847.00
93.2273 1926.00
93.2925 1968.00
93.3577 2031.00
93.4229 2048.00
93.4881 1868.00
93.5533 1889.00
93.6185 1878.00
93.6837 1873.00
93.7489 1788.00
93.8141 1860.00
93.8793 1832.00
93.9445 1841.00
94.0097 1811.00
94.0749 1818.00
94.1401 1816.00
94.2053 1857.00
94.2705 1772.00
94.3357 1788.00
94.4009 1823.00
94.4661 1851.00
94.5313 1874.00
94.5965 1967.00
94.6617 1862.00
94.7269 1808.00
94.7921 1988.00
94.8573 1835.00
94.9225 1817.00
94.9877 1887.00
95.0529 1774.00
95.1181 1885.00
95.1833 1782.00
95.2485 1912.00
95.3137 1903.00
95.3789 1981.00
95.444 1889.00
95.5092 1832.00
95.5744 1963.00
95.6396 1837.00
95.7048 2126.00
95.77 2359.00
95.8352 2251.00
95.9004 2203.00
95.9656 2127.00
96.0308 2062.00
96.096 2131.00
96.1612 2184.00
96.2264 2069.00
96.2916 1955.00
96.3568 1962.00
96.422 1832.00
96.4872 1870.00
96.5524 1952.00
96.6176 1908.00
96.6828 1878.00
96.748 1922.00
96.8132 1827.00
96.8784 1938.00
96.9436 2008.00
97.0088 2097.00
97.074 2068.00
97.1392 1933.00
97.2044 2023.00
97.2696 1942.00
97.3348 2014.00
97.4 2046.00
97.4652 2006.00
97.5304 1989.00
97.5956 2128.00
97.6608 2037.00
97.726 2077.00
97.7912 2084.00
97.8564 2055.00
97.9216 2098.00
97.9868 1979.00
98.052 2140.00
98.1172 2179.00
98.1824 2354.00
98.2476 2522.00
98.3128 2362.00
98.378 2174.00
98.4432 2055.00
98.5084 2279.00
98.5736 2163.00
98.6388 2047.00
98.704 1958.00
98.7692 1977.00
98.8344 1848.00
98.8996 1843.00
98.9648 1935.00
99.03 1870.00
99.0952 1930.00
99.1604 1811.00
99.2256 1868.00
99.2908 1954.00
99.356 2103.00
99.4212 2149.00
99.4864 2228.00
99.5516 2080.00
99.6168 1899.00
99.682 1973.00
99.7472 2111.00
99.8124 2058.00
99.8776 1975.00
99.9428 1952.00
100.008 1871.00
100.073 1833.00
100.095 1734.00