File: data/xrd_creation/results/PG_2444-1.xy
9.903433 2616.00
9.968632 2644.00
10.0338 2564.00
10.099 2479.00
10.1642 2545.00
10.2294 2591.00
10.2946 2699.00
10.3598 2439.00
10.425 2494.00
10.4902 2412.00
10.5554 2387.00
10.6206 2490.00
10.6858 2463.00
10.751 2419.00
10.8162 2440.00
10.8814 2344.00
10.9466 2478.00
11.0118 2384.00
11.077 2284.00
11.1422 2289.00
11.2074 2222.00
11.2726 2197.00
11.3378 2231.00
11.403 2293.00
11.4682 2305.00
11.5334 2236.00
11.5986 2217.00
11.6638 2239.00
11.729 2192.00
11.7942 2184.00
11.8594 2167.00
11.9246 2208.00
11.9898 2058.00
12.055 2098.00
12.1202 2070.00
12.1854 2111.00
12.2506 2064.00
12.3158 1998.00
12.381 1935.00
12.4462 2059.00
12.5114 2002.00
12.5766 1946.00
12.6418 2035.00
12.707 1943.00
12.7722 2044.00
12.8374 1999.00
12.9026 1998.00
12.9678 1962.00
13.033 1904.00
13.0982 1822.00
13.1634 1911.00
13.2286 1851.00
13.2938 1882.00
13.359 1851.00
13.4242 1889.00
13.4894 1829.00
13.5546 1830.00
13.6198 1755.00
13.685 1822.00
13.7502 1863.00
13.8154 1821.00
13.8805 1846.00
13.9457 1836.00
14.0109 1835.00
14.0761 1826.00
14.1413 1783.00
14.2065 1790.00
14.2717 1734.00
14.3369 1754.00
14.4021 1721.00
14.4673 1823.00
14.5325 1748.00
14.5977 1747.00
14.6629 1815.00
14.7281 1660.00
14.7933 1713.00
14.8585 1605.00
14.9237 1700.00
14.9889 1705.00
15.0541 1638.00
15.1193 1685.00
15.1845 1682.00
15.2497 1641.00
15.3149 1712.00
15.3801 1721.00
15.4453 1685.00
15.5105 1743.00
15.5757 1636.00
15.6409 1710.00
15.7061 1712.00
15.7713 1602.00
15.8365 1649.00
15.9017 1546.00
15.9669 1644.00
16.0321 1632.00
16.0973 1605.00
16.1625 1564.00
16.2277 1572.00
16.2929 1585.00
16.3581 1599.00
16.4233 1642.00
16.4885 1497.00
16.5537 1592.00
16.6189 1593.00
16.6841 1555.00
16.7493 1568.00
16.8145 1508.00
16.8797 1576.00
16.9449 1550.00
17.0101 1540.00
17.0753 1552.00
17.1405 1548.00
17.2057 1537.00
17.2709 1515.00
17.3361 1495.00
17.4013 1444.00
17.4665 1501.00
17.5317 1476.00
17.5969 1521.00
17.6621 1527.00
17.7273 1413.00
17.7925 1498.00
17.8577 1488.00
17.9229 1571.00
17.9881 1484.00
18.0533 1421.00
18.1185 1463.00
18.1837 1507.00
18.2489 1477.00
18.3141 1424.00
18.3793 1448.00
18.4445 1509.00
18.5097 1372.00
18.5749 1374.00
18.6401 1441.00
18.7052 1331.00
18.7704 1363.00
18.8356 1401.00
18.9008 1376.00
18.966 1309.00
19.0312 1344.00
19.0964 1339.00
19.1616 1363.00
19.2268 1417.00
19.292 1367.00
19.3572 1334.00
19.4224 1347.00
19.4876 1298.00
19.5528 1323.00
19.618 1314.00
19.6832 1245.00
19.7484 1259.00
19.8136 1342.00
19.8788 1299.00
19.944 1176.00
20.0092 1301.00
20.0744 1268.00
20.1396 1304.00
20.2048 1311.00
20.27 1233.00
20.3352 1315.00
20.4004 1222.00
20.4656 1267.00
20.5308 1217.00
20.596 1211.00
20.6612 1197.00
20.7264 1295.00
20.7916 1212.00
20.8568 1176.00
20.922 1222.00
20.9872 1255.00
21.0524 1222.00
21.1176 1169.00
21.1828 1205.00
21.248 1246.00
21.3132 1300.00
21.3784 1236.00
21.4436 1294.00
21.5088 1322.00
21.574 1397.00
21.6392 1425.00
21.7044 1418.00
21.7696 1338.00
21.8348 1266.00
21.9 1260.00
21.9652 1221.00
22.0304 1195.00
22.0956 1112.00
22.1608 1151.00
22.226 1132.00
22.2912 1155.00
22.3564 1058.00
22.4216 1214.00
22.4868 1146.00
22.552 1070.00
22.6172 1180.00
22.6824 1170.00
22.7476 1200.00
22.8128 1150.00
22.878 1183.00
22.9432 1146.00
23.0084 1170.00
23.0736 1172.00
23.1388 1080.00
23.204 1086.00
23.2692 1072.00
23.3344 1067.00
23.3996 1133.00
23.4647 1104.00
23.5299 1081.00
23.5951 1129.00
23.6603 1163.00
23.7255 1150.00
23.7907 1149.00
23.8559 1064.00
23.9211 1120.00
23.9863 1097.00
24.0515 1120.00
24.1167 1082.00
24.1819 1125.00
24.2471 1103.00
24.3123 1197.00
24.3775 1094.00
24.4427 1091.00
24.5079 1057.00
24.5731 1026.00
24.6383 1033.00
24.7035 1097.00
24.7687 1080.00
24.8339 1100.00
24.8991 1086.00
24.9643 1064.00
25.0295 1050.00
25.0947 1074.00
25.1599 1040.00
25.2251 1090.00
25.2903 1010.00
25.3555 1072.00
25.4207 995.00
25.4859 1047.00
25.5511 1115.00
25.6163 1135.00
25.6815 1092.00
25.7467 1092.00
25.8119 1090.00
25.8771 1161.00
25.9423 1220.00
26.0075 1241.00
26.0727 1312.00
26.1379 1289.00
26.2031 1360.00
26.2683 1505.00
26.3335 1599.00
26.3987 1852.00
26.4639 2069.00
26.5291 2455.00
26.5943 3228.00
26.6595 4845.00
26.7247 7738.00
26.7899 13564.00
26.8551 21087.00
26.9203 24403.00
26.9855 15780.00
27.0507 7477.00
27.1159 4086.00
27.1811 2966.00
27.2463 2204.00
27.3115 1766.00
27.3767 1540.00
27.4419 1447.00
27.5071 1312.00
27.5723 1182.00
27.6375 1209.00
27.7027 1164.00
27.7679 1092.00
27.8331 1031.00
27.8983 1055.00
27.9635 1060.00
28.0287 992.00
28.0939 1060.00
28.1591 1059.00
28.2243 1005.00
28.2894 955.00
28.3546 1064.00
28.4198 976.00
28.485 952.00
28.5502 944.00
28.6154 951.00
28.6806 1014.00
28.7458 950.00
28.811 956.00
28.8762 919.00
28.9414 943.00
29.0066 915.00
29.0718 918.00
29.137 918.00
29.2022 917.00
29.2674 934.00
29.3326 895.00
29.3978 947.00
29.463 906.00
29.5282 904.00
29.5934 906.00
29.6586 987.00
29.7238 942.00
29.789 875.00
29.8542 882.00
29.9194 957.00
29.9846 913.00
30.0498 881.00
30.115 872.00
30.1802 885.00
30.2454 833.00
30.3106 842.00
30.3758 880.00
30.441 892.00
30.5062 856.00
30.5714 940.00
30.6366 951.00
30.7018 1038.00
30.767 1066.00
30.8322 1095.00
30.8974 1121.00
30.9626 1019.00
31.0278 1002.00
31.093 965.00
31.1582 913.00
31.2234 910.00
31.2886 843.00
31.3538 801.00
31.419 873.00
31.4842 859.00
31.5494 880.00
31.6146 892.00
31.6798 866.00
31.745 888.00
31.8102 988.00
31.8754 1011.00
31.9406 1027.00
32.0058 1043.00
32.071 1014.00
32.1362 1032.00
32.2014 934.00
32.2666 862.00
32.3318 873.00
32.397 877.00
32.4622 846.00
32.5274 804.00
32.5926 827.00
32.6578 759.00
32.723 830.00
32.7882 854.00
32.8534 848.00
32.9186 857.00
32.9838 899.00
33.0489 902.00
33.1141 943.00
33.1793 937.00
33.2445 945.00
33.3097 940.00
33.3749 1014.00
33.4401 1033.00
33.5053 1021.00
33.5705 1186.00
33.6357 1286.00
33.7009 1550.00
33.7661 1687.00
33.8313 1959.00
33.8965 2672.00
33.9617 3906.00
34.0269 6752.00
34.0921 12211.00
34.1573 19606.00
34.2225 18993.00
34.2877 12610.00
34.3529 6153.00
34.4181 3403.00
34.4833 2411.00
34.5485 1894.00
34.6137 1482.00
34.6789 1193.00
34.7441 1154.00
34.8093 1013.00
34.8745 986.00
34.9397 922.00
35.0049 901.00
35.0701 904.00
35.1353 834.00
35.2005 834.00
35.2657 845.00
35.3309 772.00
35.3961 822.00
35.4613 790.00
35.5265 754.00
35.5917 747.00
35.6569 766.00
35.7221 699.00
35.7873 765.00
35.8525 764.00
35.9177 733.00
35.9829 769.00
36.0481 718.00
36.1133 711.00
36.1785 690.00
36.2437 765.00
36.3089 765.00
36.3741 746.00
36.4393 729.00
36.5045 797.00
36.5697 694.00
36.6349 675.00
36.7001 727.00
36.7653 744.00
36.8305 734.00
36.8957 736.00
36.9609 700.00
37.0261 691.00
37.0913 741.00
37.1565 821.00
37.2217 828.00
37.2869 809.00
37.3521 849.00
37.4173 779.00
37.4825 771.00
37.5477 712.00
37.6129 812.00
37.6781 790.00
37.7433 839.00
37.8085 868.00
37.8736 974.00
37.9388 1075.00
38.004 1348.00
38.0692 1788.00
38.1344 2922.00
38.1996 4869.00
38.2648 6352.00
38.33 4770.00
38.3952 3183.00
38.4604 1749.00
38.5256 1199.00
38.5908 951.00
38.656 907.00
38.7212 805.00
38.7864 702.00
38.8516 781.00
38.9168 704.00
38.982 738.00
39.0472 731.00
39.1124 817.00
39.1776 1174.00
39.2428 1657.00
39.308 1681.00
39.3732 1328.00
39.4384 961.00
39.5036 801.00
39.5688 671.00
39.634 673.00
39.6992 620.00
39.7644 668.00
39.8296 681.00
39.8948 655.00
39.96 694.00
40.0252 635.00
40.0904 625.00
40.1556 642.00
40.2208 676.00
40.286 656.00
40.3512 563.00
40.4164 591.00
40.4816 644.00
40.5468 561.00
40.612 531.00
40.6772 541.00
40.7424 551.00
40.8076 561.00
40.8728 556.00
40.938 533.00
41.0032 579.00
41.0684 534.00
41.1336 514.00
41.1988 606.00
41.264 545.00
41.3292 536.00
41.3944 595.00
41.4596 548.00
41.5248 492.00
41.59 561.00
41.6552 555.00
41.7204 529.00
41.7856 541.00
41.8508 487.00
41.916 566.00
41.9812 536.00
42.0464 551.00
42.1116 519.00
42.1768 463.00
42.242 510.00
42.3072 572.00
42.3724 529.00
42.4376 521.00
42.5028 525.00
42.568 544.00
42.6332 550.00
42.6983 529.00
42.7635 600.00
42.8287 673.00
42.8939 895.00
42.9591 840.00
43.0243 773.00
43.0895 639.00
43.1547 556.00
43.2199 536.00
43.2851 484.00
43.3503 550.00
43.4155 539.00
43.4807 495.00
43.5459 540.00
43.6111 510.00
43.6763 508.00
43.7415 460.00
43.8067 551.00
43.8719 490.00
43.9371 459.00
44.0023 490.00
44.0675 480.00
44.1327 511.00
44.1979 547.00
44.2631 484.00
44.3283 500.00
44.3935 438.00
44.4587 479.00
44.5239 500.00
44.5891 480.00
44.6543 508.00
44.7195 492.00
44.7847 464.00
44.8499 472.00
44.9151 453.00
44.9803 425.00
45.0455 475.00
45.1107 485.00
45.1759 456.00
45.2411 528.00
45.3063 450.00
45.3715 463.00
45.4367 482.00
45.5019 458.00
45.5671 438.00
45.6323 506.00
45.6975 421.00
45.7627 473.00
45.8279 468.00
45.8931 456.00
45.9583 455.00
46.0235 421.00
46.0887 483.00
46.1539 469.00
46.2191 459.00
46.2843 497.00
46.3495 473.00
46.4147 468.00
46.4799 440.00
46.5451 473.00
46.6103 495.00
46.6755 521.00
46.7407 514.00
46.8059 516.00
46.8711 510.00
46.9363 479.00
47.0015 424.00
47.0667 429.00
47.1319 446.00
47.1971 507.00
47.2623 449.00
47.3275 464.00
47.3927 480.00
47.4579 441.00
47.523 428.00
47.5882 449.00
47.6534 457.00
47.7186 444.00
47.7838 442.00
47.849 485.00
47.9142 472.00
47.9794 419.00
48.0446 444.00
48.1098 411.00
48.175 450.00
48.2402 450.00
48.3054 442.00
48.3706 441.00
48.4358 447.00
48.501 463.00
48.5662 434.00
48.6314 477.00
48.6966 475.00
48.7618 521.00
48.827 447.00
48.8922 447.00
48.9574 491.00
49.0226 472.00
49.0878 491.00
49.153 511.00
49.2182 472.00
49.2834 469.00
49.3486 459.00
49.4138 462.00
49.479 467.00
49.5442 413.00
49.6094 451.00
49.6746 450.00
49.7398 447.00
49.805 460.00
49.8702 440.00
49.9354 458.00
50.0006 444.00
50.0658 485.00
50.131 488.00
50.1962 517.00
50.2614 482.00
50.3266 500.00
50.3918 540.00
50.457 529.00
50.5222 558.00
50.5874 535.00
50.6526 517.00
50.7178 499.00
50.783 530.00
50.8482 541.00
50.9134 571.00
50.9786 552.00
51.0438 572.00
51.109 585.00
51.1742 615.00
51.2394 655.00
51.3046 583.00
51.3698 659.00
51.435 761.00
51.5002 889.00
51.5654 1029.00
51.6306 1152.00
51.6958 1356.00
51.761 1818.00
51.8262 2549.00
51.8914 3986.00
51.9566 7476.00
52.0218 14489.00
52.087 15895.00
52.1522 11386.00
52.2174 9675.00
52.2826 4727.00
52.3477 2685.00
52.4129 1838.00
52.4781 1300.00
52.5433 1084.00
52.6085 859.00
52.6737 784.00
52.7389 723.00
52.8041 662.00
52.8693 643.00
52.9345 615.00
52.9997 615.00
53.0649 591.00
53.1301 544.00
53.1953 556.00
53.2605 509.00
53.3257 480.00
53.3909 491.00
53.4561 518.00
53.5213 503.00
53.5865 536.00
53.6517 475.00
53.7169 458.00
53.7821 500.00
53.8473 522.00
53.9125 501.00
53.9777 518.00
54.0429 516.00
54.1081 506.00
54.1733 488.00
54.2385 519.00
54.3037 499.00
54.3689 529.00
54.4341 506.00
54.4993 568.00
54.5645 533.00
54.6297 637.00
54.6949 697.00
54.7601 827.00
54.8253 1078.00
54.8905 1482.00
54.9557 2602.00
55.0209 4025.00
55.0861 3531.00
55.1513 2833.00
55.2165 2284.00
55.2817 1287.00
55.3469 920.00
55.4121 733.00
55.4773 680.00
55.5425 533.00
55.6077 540.00
55.6729 543.00
55.7381 496.00
55.8033 472.00
55.8685 465.00
55.9337 458.00
55.9989 463.00
56.0641 463.00
56.1293 454.00
56.1945 423.00
56.2597 468.00
56.3249 454.00
56.3901 447.00
56.4553 495.00
56.5205 436.00
56.5857 394.00
56.6509 395.00
56.7161 444.00
56.7813 426.00
56.8465 416.00
56.9117 441.00
56.9769 420.00
57.042 426.00
57.1073 431.00
57.1724 481.00
57.2376 451.00
57.3028 463.00
57.368 458.00
57.4332 450.00
57.4984 459.00
57.5636 480.00
57.6288 461.00
57.694 513.00
57.7592 559.00
57.8244 598.00
57.8896 742.00
57.9548 970.00
58.02 1510.00
58.0852 2001.00
58.1504 1810.00
58.2156 1571.00
58.2808 1276.00
58.346 973.00
58.4112 811.00
58.4764 639.00
58.5416 537.00
58.6068 496.00
58.672 458.00
58.7372 471.00
58.8024 423.00
58.8676 460.00
58.9328 475.00
58.998 442.00
59.0632 460.00
59.1284 436.00
59.1936 428.00
59.2588 476.00
59.324 445.00
59.3892 457.00
59.4544 438.00
59.5196 461.00
59.5848 444.00
59.65 421.00
59.7152 409.00
59.7804 432.00
59.8456 411.00
59.9108 457.00
59.976 468.00
60.0412 418.00
60.1064 463.00
60.1716 440.00
60.2368 453.00
60.302 422.00
60.3672 415.00
60.4324 409.00
60.4976 415.00
60.5628 376.00
60.628 434.00
60.6932 383.00
60.7584 383.00
60.8236 411.00
60.8888 400.00
60.954 380.00
61.0192 414.00
61.0844 431.00
61.1496 389.00
61.2148 415.00
61.28 401.00
61.3452 469.00
61.4104 457.00
61.4756 481.00
61.5408 502.00
61.606 517.00
61.6712 540.00
61.7364 608.00
61.8016 651.00
61.8667 718.00
61.932 883.00
61.9971 1317.00
62.0623 2036.00
62.1275 3443.00
62.1927 3315.00
62.2579 2464.00
62.3231 2420.00
62.3883 1627.00
62.4535 1057.00
62.5187 731.00
62.5839 635.00
62.6491 499.00
62.7143 529.00
62.7795 519.00
62.8447 512.00
62.9099 495.00
62.9751 457.00
63.0403 432.00
63.1055 444.00
63.1707 442.00
63.2359 424.00
63.3011 436.00
63.3663 432.00
63.4315 450.00
63.4967 436.00
63.5619 408.00
63.6271 413.00
63.6923 381.00
63.7575 453.00
63.8227 457.00
63.8879 475.00
63.9531 424.00
64.0183 448.00
64.0835 450.00
64.1487 510.00
64.2139 439.00
64.2791 470.00
64.3443 509.00
64.4095 503.00
64.4747 544.00
64.5399 615.00
64.6051 617.00
64.6703 746.00
64.7355 870.00
64.8007 1118.00
64.8659 1629.00
64.9311 2504.00
64.9963 3570.00
65.0615 2878.00
65.1267 2386.00
65.1919 2342.00
65.2571 1572.00
65.3223 1009.00
65.3875 801.00
65.4527 649.00
65.5179 638.00
65.5831 550.00
65.6483 630.00
65.7135 649.00
65.7787 656.00
65.8439 732.00
65.9091 773.00
65.9743 981.00
66.0395 1308.00
66.1047 1929.00
66.1699 3451.00
66.2351 4351.00
66.3003 3220.00
66.3655 2842.00
66.4307 2687.00
66.4959 1665.00
66.561 1071.00
66.6263 765.00
66.6915 677.00
66.7566 562.00
66.8218 567.00
66.887 524.00
66.9522 467.00
67.0174 438.00
67.0826 417.00
67.1478 431.00
67.213 446.00
67.2782 417.00
67.3434 394.00
67.4086 395.00
67.4738 418.00
67.539 385.00
67.6042 396.00
67.6694 390.00
67.7346 411.00
67.7998 370.00
67.865 369.00
67.9302 352.00
67.9954 380.00
68.0606 352.00
68.1258 355.00
68.191 382.00
68.2562 368.00
68.3214 363.00
68.3866 322.00
68.4518 347.00
68.517 356.00
68.5822 370.00
68.6474 350.00
68.7126 380.00
68.7778 346.00
68.843 389.00
68.9082 348.00
68.9734 347.00
69.0386 351.00
69.1038 371.00
69.169 337.00
69.2342 382.00
69.2994 387.00
69.3646 398.00
69.4298 392.00
69.495 398.00
69.5602 418.00
69.6254 402.00
69.6906 364.00
69.7558 327.00
69.821 361.00
69.8862 340.00
69.9514 371.00
70.0166 356.00
70.0818 384.00
70.147 332.00
70.2122 364.00
70.2774 374.00
70.3426 368.00
70.4078 364.00
70.473 396.00
70.5382 393.00
70.6034 352.00
70.6686 393.00
70.7338 320.00
70.799 360.00
70.8642 354.00
70.9294 380.00
70.9946 394.00
71.0598 386.00
71.125 423.00
71.1902 455.00
71.2554 533.00
71.3205 595.00
71.3858 818.00
71.451 1328.00
71.5162 1945.00
71.5813 1622.00
71.6465 1332.00
71.7117 1351.00
71.7769 1050.00
71.8421 803.00
71.9073 570.00
71.9725 487.00
72.0377 425.00
72.1029 441.00
72.1681 415.00
72.2333 396.00
72.2985 335.00
72.3637 367.00
72.4289 403.00
72.4941 377.00
72.5593 332.00
72.6245 355.00
72.6897 323.00
72.7549 338.00
72.8201 319.00
72.8853 349.00
72.9505 367.00
73.0157 363.00
73.0809 336.00
73.1461 335.00
73.2113 352.00
73.2765 349.00
73.3417 340.00
73.4069 329.00
73.4721 348.00
73.5373 337.00
73.6025 323.00
73.6677 348.00
73.7329 326.00
73.7981 340.00
73.8633 285.00
73.9285 339.00
73.9937 299.00
74.0589 307.00
74.1241 326.00
74.1893 356.00
74.2545 337.00
74.3197 323.00
74.3849 345.00
74.4501 323.00
74.5153 350.00
74.5805 326.00
74.6457 393.00
74.7109 379.00
74.7761 392.00
74.8413 345.00
74.9065 352.00
74.9717 339.00
75.0369 331.00
75.1021 331.00
75.1673 345.00
75.2325 331.00
75.2977 335.00
75.3629 310.00
75.4281 332.00
75.4933 328.00
75.5585 333.00
75.6237 315.00
75.6889 307.00
75.7541 340.00
75.8193 330.00
75.8845 317.00
75.9497 300.00
76.0149 337.00
76.0801 290.00
76.1452 324.00
76.2104 346.00
76.2756 297.00
76.3409 313.00
76.406 325.00
76.4712 337.00
76.5364 322.00
76.6016 312.00
76.6668 311.00
76.732 303.00
76.7972 321.00
76.8624 339.00
76.9276 297.00
76.9928 341.00
77.058 343.00
77.1232 350.00
77.1884 338.00
77.2536 331.00
77.3188 309.00
77.384 329.00
77.4492 290.00
77.5144 309.00
77.5796 317.00
77.6448 318.00
77.71 325.00
77.7752 323.00
77.8404 322.00
77.9056 324.00
77.9708 327.00
78.036 340.00
78.1012 361.00
78.1664 342.00
78.2316 376.00
78.2968 370.00
78.362 367.00
78.4272 421.00
78.4924 451.00
78.5576 544.00
78.6228 578.00
78.688 688.00
78.7532 882.00
78.8184 1216.00
78.8836 2090.00
78.9488 2818.00
79.014 2091.00
79.0792 1557.00
79.1444 1696.00
79.2096 1652.00
79.2748 1078.00
79.34 689.00
79.4052 574.00
79.4704 486.00
79.5356 464.00
79.6008 410.00
79.666 412.00
79.7312 380.00
79.7964 387.00
79.8616 373.00
79.9268 326.00
79.992 329.00
80.0572 334.00
80.1224 350.00
80.1876 372.00
80.2528 396.00
80.318 354.00
80.3832 316.00
80.4484 330.00
80.5136 332.00
80.5788 348.00
80.644 317.00
80.7092 321.00
80.7744 321.00
80.8396 363.00
80.9048 340.00
80.9699 402.00
81.0351 403.00
81.1003 434.00
81.1655 469.00
81.2307 596.00
81.2959 789.00
81.3611 1047.00
81.4263 913.00
81.4915 731.00
81.5567 757.00
81.6219 845.00
81.6871 570.00
81.7523 444.00
81.8175 347.00
81.8827 379.00
81.9479 387.00
82.0131 365.00
82.0783 330.00
82.1435 348.00
82.2087 334.00
82.2739 331.00
82.3391 319.00
82.4043 376.00
82.4695 323.00
82.5347 319.00
82.5999 319.00
82.6651 330.00
82.7303 314.00
82.7955 333.00
82.8607 324.00
82.9259 365.00
82.9911 336.00
83.0563 320.00
83.1215 326.00
83.1867 308.00
83.2519 359.00
83.3171 364.00
83.3823 394.00
83.4475 375.00
83.5127 406.00
83.5779 447.00
83.6431 470.00
83.7083 535.00
83.7735 776.00
83.8387 1092.00
83.9039 1800.00
83.9691 1959.00
84.0343 1324.00
84.0995 1111.00
84.1647 1320.00
84.2299 1176.00
84.2951 802.00
84.3603 597.00
84.4255 470.00
84.4907 429.00
84.5559 410.00
84.6211 387.00
84.6863 386.00
84.7515 356.00
84.8167 357.00
84.8819 358.00
84.9471 334.00
85.0123 315.00
85.0775 295.00
85.1427 346.00
85.2079 329.00
85.2731 357.00
85.3383 320.00
85.4035 330.00
85.4687 312.00
85.5339 298.00
85.5991 306.00
85.6643 329.00
85.7295 311.00
85.7946 299.00
85.8598 346.00
85.925 330.00
85.9903 349.00
86.0554 314.00
86.1206 329.00
86.1858 327.00
86.251 320.00
86.3162 335.00
86.3814 300.00
86.4466 296.00
86.5118 363.00
86.577 313.00
86.6422 340.00
86.7074 357.00
86.7726 307.00
86.8378 345.00
86.903 336.00
86.9682 344.00
87.0334 370.00
87.0986 375.00
87.1638 388.00
87.229 432.00
87.2942 508.00
87.3594 744.00
87.4246 989.00
87.4898 972.00
87.555 763.00
87.6202 676.00
87.6854 757.00
87.7506 708.00
87.8158 548.00
87.881 461.00
87.9462 388.00
88.0114 372.00
88.0766 389.00
88.1418 343.00
88.207 360.00
88.2722 390.00
88.3374 309.00
88.4026 333.00
88.4678 354.00
88.533 340.00
88.5982 324.00
88.6634 341.00
88.7286 347.00
88.7938 327.00
88.859 337.00
88.9242 324.00
88.9894 338.00
89.0546 390.00
89.1198 321.00
89.185 365.00
89.2502 339.00
89.3154 374.00
89.3806 407.00
89.4458 405.00
89.511 446.00
89.5762 482.00
89.6414 532.00
89.7066 555.00
89.7718 713.00
89.837 958.00
89.9022 1324.00
89.9674 2020.00
90.0326 2191.00
90.0978 1491.00
90.163 1305.00
90.2282 1350.00
90.2934 1425.00
90.3586 1079.00
90.4238 880.00
90.489 664.00
90.5542 606.00
90.6193 584.00
90.6845 549.00
90.7497 585.00
90.8149 622.00
90.8801 729.00
90.9453 972.00
91.0105 1408.00
91.0757 2029.00
91.1409 2261.00
91.2061 1599.00
91.2713 1249.00
91.3365 1330.00
91.4017 1549.00
91.4669 1191.00
91.5321 817.00
91.5973 605.00
91.6625 537.00
91.7277 482.00
91.7929 440.00
91.8581 415.00
91.9233 388.00
91.9885 346.00
92.0537 383.00
92.1189 371.00
92.1841 356.00
92.2493 326.00
92.3145 343.00
92.3797 334.00
92.4449 347.00
92.5101 367.00
92.5753 398.00
92.6405 310.00
92.7057 312.00
92.7709 333.00
92.8361 369.00
92.9013 351.00
92.9665 357.00
93.0317 365.00
93.0969 369.00
93.1621 437.00
93.2273 431.00
93.2925 537.00
93.3577 693.00
93.4229 870.00
93.4881 1229.00
93.5533 1118.00
93.6185 859.00
93.6837 738.00
93.7489 839.00
93.8141 923.00
93.8793 676.00
93.9445 513.00
94.0097 433.00
94.0749 401.00
94.1401 360.00
94.2053 348.00
94.2705 329.00
94.3357 350.00
94.4009 345.00
94.4661 350.00
94.5313 320.00
94.5965 335.00
94.6617 350.00
94.7269 333.00
94.7921 292.00
94.8573 337.00
94.9225 339.00
94.9877 297.00
95.0529 322.00
95.1181 355.00
95.1833 303.00
95.2485 327.00
95.3137 311.00
95.3789 338.00
95.444 316.00
95.5092 323.00
95.5744 326.00
95.6396 380.00
95.7048 320.00
95.77 369.00
95.8352 363.00
95.9004 413.00
95.9656 473.00
96.0308 542.00
96.096 706.00
96.1612 904.00
96.2264 1153.00
96.2916 867.00
96.3568 718.00
96.422 724.00
96.4872 731.00
96.5524 693.00
96.6176 611.00
96.6828 488.00
96.748 410.00
96.8132 380.00
96.8784 384.00
96.9436 329.00
97.0088 326.00
97.074 319.00
97.1392 328.00
97.2044 309.00
97.2696 331.00
97.3348 324.00
97.4 305.00
97.4652 291.00
97.5304 318.00
97.5956 369.00
97.6608 292.00
97.726 295.00
97.7912 319.00
97.8564 293.00
97.9216 277.00
97.9868 256.00
98.052 300.00
98.1172 316.00
98.1824 297.00
98.2476 306.00
98.3128 308.00
98.378 296.00
98.4432 268.00
98.5084 285.00
98.5736 301.00
98.6388 292.00
98.704 306.00
98.7692 311.00
98.8344 308.00
98.8996 329.00
98.9648 303.00
99.03 318.00
99.0952 302.00
99.1604 291.00
99.2256 323.00
99.2908 319.00
99.356 340.00
99.4212 334.00
99.4864 292.00
99.5516 309.00
99.6168 324.00
99.682 289.00
99.7472 280.00
99.8124 282.00
99.8776 321.00
99.9428 325.00
100.008 302.00
100.073 294.00
100.095 314.00