File: data/xrd_creation/results/PG_2741-1.xy
9.903433 2771.00
9.968632 2560.00
10.0338 2688.00
10.099 2782.00
10.1642 2714.00
10.2294 2653.00
10.2946 2620.00
10.3598 2625.00
10.425 2644.00
10.4902 2612.00
10.5554 2554.00
10.6206 2484.00
10.6858 2578.00
10.751 2518.00
10.8162 2522.00
10.8814 2511.00
10.9466 2487.00
11.0118 2454.00
11.077 2499.00
11.1422 2367.00
11.2074 2441.00
11.2726 2416.00
11.3378 2312.00
11.403 2356.00
11.4682 2375.00
11.5334 2261.00
11.5986 2319.00
11.6638 2306.00
11.729 2322.00
11.7942 2253.00
11.8594 2144.00
11.9246 2205.00
11.9898 2210.00
12.055 2130.00
12.1202 2260.00
12.1854 2174.00
12.2506 2241.00
12.3158 2140.00
12.381 2223.00
12.4462 2168.00
12.5114 2212.00
12.5766 2158.00
12.6418 2084.00
12.707 1997.00
12.7722 2119.00
12.8374 2084.00
12.9026 1997.00
12.9678 1997.00
13.033 2110.00
13.0982 2023.00
13.1634 2054.00
13.2286 2060.00
13.2938 2121.00
13.359 2029.00
13.4242 2020.00
13.4894 1982.00
13.5546 2109.00
13.6198 2000.00
13.685 2137.00
13.7502 2173.00
13.8154 2373.00
13.8805 2577.00
13.9457 3013.00
14.0109 3950.00
14.0761 4933.00
14.1413 3040.00
14.2065 2080.00
14.2717 1991.00
14.3369 1978.00
14.4021 1948.00
14.4673 1912.00
14.5325 1927.00
14.5977 1953.00
14.6629 1857.00
14.7281 1881.00
14.7933 1916.00
14.8585 1877.00
14.9237 1858.00
14.9889 1882.00
15.0541 1838.00
15.1193 1812.00
15.1845 1874.00
15.2497 1805.00
15.3149 1850.00
15.3801 1899.00
15.4453 1796.00
15.5105 1781.00
15.5757 1783.00
15.6409 1838.00
15.7061 1770.00
15.7713 1790.00
15.8365 1828.00
15.9017 1830.00
15.9669 1740.00
16.0321 1852.00
16.0973 1786.00
16.1625 1763.00
16.2277 1836.00
16.2929 1758.00
16.3581 1852.00
16.4233 1772.00
16.4885 1839.00
16.5537 1836.00
16.6189 1717.00
16.6841 1760.00
16.7493 1727.00
16.8145 1708.00
16.8797 1730.00
16.9449 1745.00
17.0101 1628.00
17.0753 1727.00
17.1405 1715.00
17.2057 1628.00
17.2709 1720.00
17.3361 1688.00
17.4013 1674.00
17.4665 1690.00
17.5317 1790.00
17.5969 1641.00
17.6621 1694.00
17.7273 1731.00
17.7925 1667.00
17.8577 1648.00
17.9229 1654.00
17.9881 1773.00
18.0533 1661.00
18.1185 1744.00
18.1837 1896.00
18.2489 1935.00
18.3141 2132.00
18.3793 2107.00
18.4445 1784.00
18.5097 1674.00
18.5749 1666.00
18.6401 1688.00
18.7052 1680.00
18.7704 1555.00
18.8356 1651.00
18.9008 1577.00
18.966 1579.00
19.0312 1579.00
19.0964 1616.00
19.1616 1572.00
19.2268 1549.00
19.292 1638.00
19.3572 1616.00
19.4224 1576.00
19.4876 1628.00
19.5528 1553.00
19.618 1593.00
19.6832 1634.00
19.7484 1677.00
19.8136 1622.00
19.8788 1557.00
19.944 1615.00
20.0092 1550.00
20.0744 1499.00
20.1396 1557.00
20.2048 1472.00
20.27 1535.00
20.3352 1550.00
20.4004 1487.00
20.4656 1523.00
20.5308 1490.00
20.596 1563.00
20.6612 1519.00
20.7264 1530.00
20.7916 1476.00
20.8568 1493.00
20.922 1431.00
20.9872 1450.00
21.0524 1528.00
21.1176 1466.00
21.1828 1528.00
21.248 1506.00
21.3132 1422.00
21.3784 1463.00
21.4436 1514.00
21.5088 1423.00
21.574 1472.00
21.6392 1443.00
21.7044 1431.00
21.7696 1527.00
21.8348 1427.00
21.9 1410.00
21.9652 1424.00
22.0304 1471.00
22.0956 1401.00
22.1608 1412.00
22.226 1492.00
22.2912 1403.00
22.3564 1437.00
22.4216 1411.00
22.4868 1405.00
22.552 1387.00
22.6172 1345.00
22.6824 1342.00
22.7476 1385.00
22.8128 1371.00
22.878 1473.00
22.9432 1387.00
23.0084 1427.00
23.0736 1362.00
23.1388 1407.00
23.204 1406.00
23.2692 1418.00
23.3344 1401.00
23.3996 1366.00
23.4647 1395.00
23.5299 1436.00
23.5951 1350.00
23.6603 1310.00
23.7255 1443.00
23.7907 1375.00
23.8559 1349.00
23.9211 1318.00
23.9863 1294.00
24.0515 1364.00
24.1167 1407.00
24.1819 1399.00
24.2471 1337.00
24.3123 1335.00
24.3775 1371.00
24.4427 1341.00
24.5079 1311.00
24.5731 1395.00
24.6383 1340.00
24.7035 1333.00
24.7687 1376.00
24.8339 1304.00
24.8991 1361.00
24.9643 1311.00
25.0295 1370.00
25.0947 1328.00
25.1599 1349.00
25.2251 1426.00
25.2903 1404.00
25.3555 1305.00
25.4207 1309.00
25.4859 1320.00
25.5511 1355.00
25.6163 1303.00
25.6815 1323.00
25.7467 1459.00
25.8119 1544.00
25.8771 1456.00
25.9423 1298.00
26.0075 1288.00
26.0727 1305.00
26.1379 1334.00
26.2031 1267.00
26.2683 1308.00
26.3335 1315.00
26.3987 1307.00
26.4639 1294.00
26.5291 1306.00
26.5943 1297.00
26.6595 1337.00
26.7247 1302.00
26.7899 1438.00
26.8551 1352.00
26.9203 1298.00
26.9855 1360.00
27.0507 1352.00
27.1159 1422.00
27.1811 1427.00
27.2463 1512.00
27.3115 1452.00
27.3767 1483.00
27.4419 1509.00
27.5071 1593.00
27.5723 1774.00
27.6375 1931.00
27.7027 2135.00
27.7679 3023.00
27.8331 5039.00
27.8983 11338.00
27.9635 24539.00
28.0287 33188.00
28.0939 16638.00
28.1591 4378.00
28.2243 2460.00
28.2894 2078.00
28.3546 1838.00
28.4198 1653.00
28.485 1607.00
28.5502 1648.00
28.6154 1987.00
28.6806 2334.00
28.7458 2118.00
28.811 1678.00
28.8762 1681.00
28.9414 1759.00
29.0066 1708.00
29.0718 1714.00
29.137 2022.00
29.2022 2415.00
29.2674 2205.00
29.3326 1727.00
29.3978 1436.00
29.463 1370.00
29.5282 1404.00
29.5934 1325.00
29.6586 1272.00
29.7238 1356.00
29.789 1288.00
29.8542 1288.00
29.9194 1328.00
29.9846 1247.00
30.0498 1213.00
30.115 1233.00
30.1802 1278.00
30.2454 1254.00
30.3106 1237.00
30.3758 1260.00
30.441 1221.00
30.5062 1225.00
30.5714 1295.00
30.6366 1233.00
30.7018 1250.00
30.767 1234.00
30.8322 1245.00
30.8974 1230.00
30.9626 1280.00
31.0278 1178.00
31.093 1310.00
31.1582 1232.00
31.2234 1416.00
31.2886 1579.00
31.3538 1775.00
31.419 1588.00
31.4842 1358.00
31.5494 1276.00
31.6146 1278.00
31.6798 1303.00
31.745 1261.00
31.8102 1296.00
31.8754 1385.00
31.9406 1371.00
32.0058 1483.00
32.071 1473.00
32.1362 1730.00
32.2014 2243.00
32.2666 3645.00
32.3318 8011.00
32.397 13750.00
32.4622 9021.00
32.5274 4671.00
32.5926 3628.00
32.6578 3434.00
32.723 2635.00
32.7882 1868.00
32.8534 1500.00
32.9186 1427.00
32.9838 1382.00
33.0489 1393.00
33.1141 1198.00
33.1793 1219.00
33.2445 1221.00
33.3097 1217.00
33.3749 1272.00
33.4401 1249.00
33.5053 1211.00
33.5705 1156.00
33.6357 1167.00
33.7009 1198.00
33.7661 1136.00
33.8313 1178.00
33.8965 1130.00
33.9617 1175.00
34.0269 1129.00
34.0921 1171.00
34.1573 1263.00
34.2225 1231.00
34.2877 1217.00
34.3529 1073.00
34.4181 1183.00
34.4833 1135.00
34.5485 1160.00
34.6137 1040.00
34.6789 1155.00
34.7441 1174.00
34.8093 1159.00
34.8745 1091.00
34.9397 1128.00
35.0049 1122.00
35.0701 1232.00
35.1353 1321.00
35.2005 1413.00
35.2657 2078.00
35.3309 3766.00
35.3961 3393.00
35.4613 2578.00
35.5265 1458.00
35.5917 1269.00
35.6569 1189.00
35.7221 1162.00
35.7873 1129.00
35.8525 1149.00
35.9177 1176.00
35.9829 1175.00
36.0481 1207.00
36.1133 1273.00
36.1785 1342.00
36.2437 1670.00
36.3089 2310.00
36.3741 3528.00
36.4393 3839.00
36.5045 2809.00
36.5697 1840.00
36.6349 1457.00
36.7001 1479.00
36.7653 1565.00
36.8305 1588.00
36.8957 1410.00
36.9609 1285.00
37.0261 1135.00
37.0913 1134.00
37.1565 1075.00
37.2217 1096.00
37.2869 1080.00
37.3521 1020.00
37.4173 1062.00
37.4825 1083.00
37.5477 1066.00
37.6129 1072.00
37.6781 1034.00
37.7433 1052.00
37.8085 1018.00
37.8736 1015.00
37.9388 999.00
38.004 1120.00
38.0692 1119.00
38.1344 1201.00
38.1996 1361.00
38.2648 1506.00
38.33 1576.00
38.3952 1405.00
38.4604 1203.00
38.5256 1106.00
38.5908 1050.00
38.656 1007.00
38.7212 1059.00
38.7864 1030.00
38.8516 1015.00
38.9168 1008.00
38.982 1008.00
39.0472 1031.00
39.1124 1012.00
39.1776 949.00
39.2428 965.00
39.308 1038.00
39.3732 1029.00
39.4384 959.00
39.5036 997.00
39.5688 960.00
39.634 1012.00
39.6992 1115.00
39.7644 1126.00
39.8296 1354.00
39.8948 1452.00
39.96 1296.00
40.0252 1066.00
40.0904 979.00
40.1556 1009.00
40.2208 1027.00
40.286 955.00
40.3512 986.00
40.4164 964.00
40.4816 1017.00
40.5468 949.00
40.612 987.00
40.6772 957.00
40.7424 957.00
40.8076 943.00
40.8728 953.00
40.938 1057.00
41.0032 1023.00
41.0684 986.00
41.1336 951.00
41.1988 1005.00
41.264 949.00
41.3292 1018.00
41.3944 976.00
41.4596 959.00
41.5248 986.00
41.59 987.00
41.6552 937.00
41.7204 960.00
41.7856 1021.00
41.8508 975.00
41.916 957.00
41.9812 1027.00
42.0464 1022.00
42.1116 997.00
42.1768 1039.00
42.242 1144.00
42.3072 1366.00
42.3724 1906.00
42.4376 1392.00
42.5028 1405.00
42.568 1039.00
42.6332 1018.00
42.6983 955.00
42.7635 990.00
42.8287 946.00
42.8939 952.00
42.9591 922.00
43.0243 956.00
43.0895 978.00
43.1547 941.00
43.2199 995.00
43.2851 957.00
43.3503 951.00
43.4155 973.00
43.4807 929.00
43.5459 992.00
43.6111 908.00
43.6763 984.00
43.7415 943.00
43.8067 922.00
43.8719 1016.00
43.9371 911.00
44.0023 956.00
44.0675 947.00
44.1327 967.00
44.1979 905.00
44.2631 965.00
44.3283 1004.00
44.3935 1026.00
44.4587 1051.00
44.5239 1027.00
44.5891 1124.00
44.6543 1274.00
44.7195 1559.00
44.7847 1553.00
44.8499 1322.00
44.9151 1200.00
44.9803 1089.00
45.0455 1068.00
45.1107 973.00
45.1759 1054.00
45.2411 1013.00
45.3063 993.00
45.3715 955.00
45.4367 1033.00
45.5019 1014.00
45.5671 996.00
45.6323 1005.00
45.6975 1040.00
45.7627 1055.00
45.8279 1084.00
45.8931 1180.00
45.9583 1207.00
46.0235 1366.00
46.0887 1583.00
46.1539 2245.00
46.2191 5120.00
46.2843 12646.00
46.3495 8421.00
46.4147 7812.00
46.4799 3578.00
46.5451 1776.00
46.6103 1351.00
46.6755 1200.00
46.7407 1165.00
46.8059 1034.00
46.8711 1011.00
46.9363 1040.00
47.0015 957.00
47.0667 964.00
47.1319 1018.00
47.1971 989.00
47.2623 1029.00
47.3275 1132.00
47.3927 1120.00
47.4579 1141.00
47.523 1034.00
47.5882 1031.00
47.6534 903.00
47.7186 991.00
47.7838 936.00
47.849 978.00
47.9142 1007.00
47.9794 900.00
48.0446 960.00
48.1098 969.00
48.175 923.00
48.2402 945.00
48.3054 995.00
48.3706 999.00
48.4358 1076.00
48.501 1360.00
48.5662 1326.00
48.6314 1251.00
48.6966 1084.00
48.7618 1004.00
48.827 937.00
48.8922 946.00
48.9574 920.00
49.0226 934.00
49.0878 1026.00
49.153 971.00
49.2182 1036.00
49.2834 993.00
49.3486 933.00
49.4138 1008.00
49.479 951.00
49.5442 921.00
49.6094 952.00
49.6746 896.00
49.7398 978.00
49.805 934.00
49.8702 1005.00
49.9354 997.00
50.0006 1021.00
50.0658 1116.00
50.131 1138.00
50.1962 1041.00
50.2614 1045.00
50.3266 1009.00
50.3918 1003.00
50.457 970.00
50.5222 972.00
50.5874 986.00
50.6526 1033.00
50.7178 1169.00
50.783 1258.00
50.8482 1275.00
50.9134 1403.00
50.9786 1612.00
51.0438 1525.00
51.109 1382.00
51.1742 1213.00
51.2394 1105.00
51.3046 1004.00
51.3698 975.00
51.435 961.00
51.5002 973.00
51.5654 922.00
51.6306 943.00
51.6958 928.00
51.761 893.00
51.8262 909.00
51.8914 958.00
51.9566 888.00
52.0218 881.00
52.087 918.00
52.1522 896.00
52.2174 916.00
52.2826 892.00
52.3477 894.00
52.4129 899.00
52.4781 890.00
52.5433 903.00
52.6085 833.00
52.6737 854.00
52.7389 962.00
52.8041 940.00
52.8693 920.00
52.9345 955.00
52.9997 899.00
53.0649 953.00
53.1301 939.00
53.1953 943.00
53.2605 906.00
53.3257 998.00
53.3909 975.00
53.4561 975.00
53.5213 1024.00
53.5865 912.00
53.6517 1007.00
53.7169 958.00
53.7821 1005.00
53.8473 922.00
53.9125 1002.00
53.9777 993.00
54.0429 1081.00
54.1081 1182.00
54.1733 1319.00
54.2385 1247.00
54.3037 1238.00
54.3689 1183.00
54.4341 1175.00
54.4993 1276.00
54.5645 1438.00
54.6297 1603.00
54.6949 2424.00
54.7601 5783.00
54.8253 12828.00
54.8905 6239.00
54.9557 7012.00
55.0209 4314.00
55.0861 1994.00
55.1513 1463.00
55.2165 1236.00
55.2817 1215.00
55.3469 1147.00
55.4121 1046.00
55.4773 1095.00
55.5425 965.00
55.6077 1037.00
55.6729 1000.00
55.7381 982.00
55.8033 994.00
55.8685 971.00
55.9337 983.00
55.9989 978.00
56.0641 997.00
56.1293 952.00
56.1945 1018.00
56.2597 1178.00
56.3249 1155.00
56.3901 1070.00
56.4553 1148.00
56.5205 1031.00
56.5857 954.00
56.6509 982.00
56.7161 1026.00
56.7813 960.00
56.8465 983.00
56.9117 1002.00
56.9769 1016.00
57.042 1009.00
57.1073 1061.00
57.1724 1038.00
57.2376 1055.00
57.3028 1242.00
57.368 1715.00
57.4332 3461.00
57.4984 3518.00
57.5636 2175.00
57.6288 2764.00
57.694 1436.00
57.7592 1089.00
57.8244 1050.00
57.8896 1019.00
57.9548 992.00
58.02 994.00
58.0852 975.00
58.1504 947.00
58.2156 863.00
58.2808 943.00
58.346 938.00
58.4112 941.00
58.4764 1004.00
58.5416 986.00
58.6068 1057.00
58.672 1106.00
58.7372 1358.00
58.8024 1720.00
58.8676 1492.00
58.9328 1462.00
58.998 1378.00
59.0632 1265.00
59.1284 1150.00
59.1936 1030.00
59.2588 1212.00
59.324 1769.00
59.3892 3147.00
59.4544 1916.00
59.5196 1830.00
59.5848 1807.00
59.65 1180.00
59.7152 1107.00
59.7804 1017.00
59.8456 1062.00
59.9108 1094.00
59.976 1300.00
60.0412 1559.00
60.1064 2170.00
60.1716 2035.00
60.2368 1745.00
60.302 1725.00
60.3672 1336.00
60.4324 1155.00
60.4976 1048.00
60.5628 963.00
60.628 965.00
60.6932 924.00
60.7584 829.00
60.8236 932.00
60.8888 954.00
60.954 951.00
61.0192 886.00
61.0844 990.00
61.1496 973.00
61.2148 918.00
61.28 931.00
61.3452 993.00
61.4104 918.00
61.4756 911.00
61.5408 919.00
61.606 890.00
61.6712 864.00
61.7364 858.00
61.8016 900.00
61.8667 905.00
61.932 849.00
61.9971 885.00
62.0623 906.00
62.1275 854.00
62.1927 901.00
62.2579 860.00
62.3231 880.00
62.3883 892.00
62.4535 849.00
62.5187 948.00
62.5839 948.00
62.6491 925.00
62.7143 892.00
62.7795 841.00
62.8447 846.00
62.9099 820.00
62.9751 852.00
63.0403 932.00
63.1055 903.00
63.1707 877.00
63.2359 864.00
63.3011 896.00
63.3663 927.00
63.4315 970.00
63.4967 981.00
63.5619 936.00
63.6271 882.00
63.6923 931.00
63.7575 851.00
63.8227 847.00
63.8879 877.00
63.9531 849.00
64.0183 963.00
64.0835 910.00
64.1487 883.00
64.2139 991.00
64.2791 1233.00
64.3443 1971.00
64.4095 1452.00
64.4747 1225.00
64.5399 1518.00
64.6051 1060.00
64.6703 1000.00
64.7355 950.00
64.8007 981.00
64.8659 1199.00
64.9311 1377.00
64.9963 1230.00
65.0615 1180.00
65.1267 1130.00
65.1919 1033.00
65.2571 944.00
65.3223 885.00
65.3875 869.00
65.4527 911.00
65.5179 888.00
65.5831 857.00
65.6483 893.00
65.7135 950.00
65.7787 817.00
65.8439 876.00
65.9091 849.00
65.9743 879.00
66.0395 876.00
66.1047 885.00
66.1699 907.00
66.2351 900.00
66.3003 852.00
66.3655 891.00
66.4307 843.00
66.4959 892.00
66.561 811.00
66.6263 842.00
66.6915 846.00
66.7566 904.00
66.8218 916.00
66.887 916.00
66.9522 948.00
67.0174 990.00
67.0826 903.00
67.1478 992.00
67.213 1040.00
67.2782 1363.00
67.3434 2118.00
67.4086 1779.00
67.4738 1314.00
67.539 1562.00
67.6042 1189.00
67.6694 985.00
67.7346 910.00
67.7998 990.00
67.865 942.00
67.9302 964.00
67.9954 925.00
68.0606 929.00
68.1258 882.00
68.191 918.00
68.2562 844.00
68.3214 893.00
68.3866 930.00
68.4518 944.00
68.517 899.00
68.5822 923.00
68.6474 887.00
68.7126 957.00
68.7778 941.00
68.843 885.00
68.9082 952.00
68.9734 1045.00
69.0386 1200.00
69.1038 2013.00
69.169 1671.00
69.2342 1211.00
69.2994 1535.00
69.3646 1262.00
69.4298 1001.00
69.495 910.00
69.5602 890.00
69.6254 911.00
69.6906 888.00
69.7558 924.00
69.821 889.00
69.8862 1001.00
69.9514 974.00
70.0166 935.00
70.0818 919.00
70.147 905.00
70.2122 946.00
70.2774 801.00
70.3426 901.00
70.4078 880.00
70.473 816.00
70.5382 789.00
70.6034 819.00
70.6686 876.00
70.7338 879.00
70.799 850.00
70.8642 808.00
70.9294 840.00
70.9946 806.00
71.0598 918.00
71.125 844.00
71.1902 816.00
71.2554 834.00
71.3205 800.00
71.3858 888.00
71.451 886.00
71.5162 873.00
71.5813 852.00
71.6465 880.00
71.7117 879.00
71.7769 861.00
71.8421 900.00
71.9073 897.00
71.9725 1047.00
72.0377 1070.00
72.1029 952.00
72.1681 910.00
72.2333 988.00
72.2985 855.00
72.3637 851.00
72.4289 862.00
72.4941 911.00
72.5593 892.00
72.6245 896.00
72.6897 873.00
72.7549 844.00
72.8201 863.00
72.8853 860.00
72.9505 840.00
73.0157 884.00
73.0809 906.00
73.1461 890.00
73.2113 861.00
73.2765 869.00
73.3417 895.00
73.4069 894.00
73.4721 872.00
73.5373 908.00
73.6025 898.00
73.6677 1039.00
73.7329 1161.00
73.7981 1068.00
73.8633 1086.00
73.9285 1096.00
73.9937 1050.00
74.0589 1032.00
74.1241 1164.00
74.1893 1496.00
74.2545 2623.00
74.3197 4331.00
74.3849 2229.00
74.4501 1997.00
74.5153 2774.00
74.5805 1804.00
74.6457 1274.00
74.7109 1094.00
74.7761 1031.00
74.8413 925.00
74.9065 913.00
74.9717 952.00
75.0369 870.00
75.1021 886.00
75.1673 878.00
75.2325 880.00
75.2977 818.00
75.3629 860.00
75.4281 869.00
75.4933 886.00
75.5585 858.00
75.6237 918.00
75.6889 916.00
75.7541 857.00
75.8193 844.00
75.8845 863.00
75.9497 882.00
76.0149 947.00
76.0801 896.00
76.1452 987.00
76.2104 961.00
76.2756 935.00
76.3409 1054.00
76.406 1150.00
76.4712 1582.00
76.5364 3124.00
76.6016 2966.00
76.6668 1633.00
76.732 1800.00
76.7972 2409.00
76.8624 1536.00
76.9276 1180.00
76.9928 1016.00
77.058 995.00
77.1232 921.00
77.1884 895.00
77.2536 874.00
77.3188 865.00
77.384 904.00
77.4492 913.00
77.5144 887.00
77.5796 872.00
77.6448 944.00
77.71 999.00
77.7752 937.00
77.8404 967.00
77.9056 901.00
77.9708 999.00
78.036 936.00
78.1012 988.00
78.1664 1034.00
78.2316 1426.00
78.2968 1159.00
78.362 1011.00
78.4272 1112.00
78.4924 1143.00
78.5576 955.00
78.6228 916.00
78.688 897.00
78.7532 876.00
78.8184 950.00
78.8836 903.00
78.9488 851.00
79.014 904.00
79.0792 856.00
79.1444 828.00
79.2096 870.00
79.2748 838.00
79.34 899.00
79.4052 865.00
79.4704 850.00
79.5356 852.00
79.6008 809.00
79.666 872.00
79.7312 878.00
79.7964 843.00
79.8616 824.00
79.9268 868.00
79.992 892.00
80.0572 859.00
80.1224 865.00
80.1876 913.00
80.2528 900.00
80.318 958.00
80.3832 885.00
80.4484 908.00
80.5136 905.00
80.5788 946.00
80.644 930.00
80.7092 922.00
80.7744 896.00
80.8396 940.00
80.9048 910.00
80.9699 934.00
81.0351 881.00
81.1003 878.00
81.1655 874.00
81.2307 892.00
81.2959 820.00
81.3611 969.00
81.4263 873.00
81.4915 932.00
81.5567 879.00
81.6219 920.00
81.6871 921.00
81.7523 891.00
81.8175 905.00
81.8827 879.00
81.9479 926.00
82.0131 870.00
82.0783 879.00
82.1435 887.00
82.2087 866.00
82.2739 825.00
82.3391 883.00
82.4043 837.00
82.4695 851.00
82.5347 851.00
82.5999 930.00
82.6651 1196.00
82.7303 990.00
82.7955 888.00
82.8607 941.00
82.9259 1075.00
82.9911 923.00
83.0563 889.00
83.1215 835.00
83.1867 846.00
83.2519 867.00
83.3171 843.00
83.3823 828.00
83.4475 809.00
83.5127 864.00
83.5779 852.00
83.6431 831.00
83.7083 831.00
83.7735 874.00
83.8387 827.00
83.9039 866.00
83.9691 850.00
84.0343 873.00
84.0995 905.00
84.1647 825.00
84.2299 839.00
84.2951 913.00
84.3603 868.00
84.4255 814.00
84.4907 862.00
84.5559 874.00
84.6211 830.00
84.6863 885.00
84.7515 823.00
84.8167 807.00
84.8819 838.00
84.9471 882.00
85.0123 896.00
85.0775 859.00
85.1427 935.00
85.2079 959.00
85.2731 1081.00
85.3383 1381.00
85.4035 2196.00
85.4687 1807.00
85.5339 1211.00
85.5991 1206.00
85.6643 1637.00
85.7295 1366.00
85.7946 992.00
85.8598 927.00
85.925 904.00
85.9903 858.00
86.0554 944.00
86.1206 838.00
86.1858 866.00
86.251 877.00
86.3162 922.00
86.3814 882.00
86.4466 888.00
86.5118 952.00
86.577 887.00
86.6422 1017.00
86.7074 1033.00
86.7726 973.00
86.8378 942.00
86.903 928.00
86.9682 1080.00
87.0334 1228.00
87.0986 1238.00
87.1638 947.00
87.229 966.00
87.2942 976.00
87.3594 1004.00
87.4246 963.00
87.4898 856.00
87.555 787.00
87.6202 849.00
87.6854 833.00
87.7506 842.00
87.8158 901.00
87.881 836.00
87.9462 836.00
88.0114 831.00
88.0766 810.00
88.1418 797.00
88.207 866.00
88.2722 803.00
88.3374 875.00
88.4026 792.00
88.4678 803.00
88.533 812.00
88.5982 903.00
88.6634 842.00
88.7286 856.00
88.7938 860.00
88.859 843.00
88.9242 870.00
88.9894 845.00
89.0546 804.00
89.1198 869.00
89.185 854.00
89.2502 891.00
89.3154 871.00
89.3806 836.00
89.4458 844.00
89.511 902.00
89.5762 876.00
89.6414 850.00
89.7066 967.00
89.7718 867.00
89.837 873.00
89.9022 890.00
89.9674 868.00
90.0326 926.00
90.0978 842.00
90.163 841.00
90.2282 850.00
90.2934 875.00
90.3586 827.00
90.4238 847.00
90.489 872.00
90.5542 879.00
90.6193 839.00
90.6845 896.00
90.7497 873.00
90.8149 905.00
90.8801 999.00
90.9453 996.00
91.0105 998.00
91.0757 921.00
91.1409 1005.00
91.2061 1033.00
91.2713 1064.00
91.3365 1246.00
91.4017 1889.00
91.4669 1787.00
91.5321 1253.00
91.5973 1130.00
91.6625 1366.00
91.7277 1498.00
91.7929 1340.00
91.8581 1359.00
91.9233 1965.00
91.9885 2514.00
92.0537 1556.00
92.1189 1294.00
92.1841 1308.00
92.2493 1722.00
92.3145 1511.00
92.3797 1046.00
92.4449 991.00
92.5101 914.00
92.5753 938.00
92.6405 902.00
92.7057 903.00
92.7709 901.00
92.8361 886.00
92.9013 932.00
92.9665 905.00
93.0317 895.00
93.0969 918.00
93.1621 853.00
93.2273 843.00
93.2925 907.00
93.3577 893.00
93.4229 863.00
93.4881 815.00
93.5533 875.00
93.6185 883.00
93.6837 808.00
93.7489 871.00
93.8141 841.00
93.8793 866.00
93.9445 888.00
94.0097 828.00
94.0749 884.00
94.1401 875.00
94.2053 815.00
94.2705 906.00
94.3357 839.00
94.4009 846.00
94.4661 853.00
94.5313 870.00
94.5965 795.00
94.6617 846.00
94.7269 842.00
94.7921 833.00
94.8573 817.00
94.9225 846.00
94.9877 828.00
95.0529 834.00
95.1181 824.00
95.1833 854.00
95.2485 792.00
95.3137 838.00
95.3789 867.00
95.444 879.00
95.5092 860.00
95.5744 928.00
95.6396 915.00
95.7048 935.00
95.77 1064.00
95.8352 1122.00
95.9004 910.00
95.9656 847.00
96.0308 899.00
96.096 973.00
96.1612 914.00
96.2264 921.00
96.2916 857.00
96.3568 906.00
96.422 901.00
96.4872 919.00
96.5524 851.00
96.6176 874.00
96.6828 964.00
96.748 926.00
96.8132 885.00
96.8784 898.00
96.9436 891.00
97.0088 873.00
97.074 844.00
97.1392 828.00
97.2044 820.00
97.2696 831.00
97.3348 864.00
97.4 816.00
97.4652 802.00
97.5304 845.00
97.5956 879.00
97.6608 861.00
97.726 888.00
97.7912 796.00
97.8564 873.00
97.9216 867.00
97.9868 842.00
98.052 921.00
98.1172 866.00
98.1824 825.00
98.2476 887.00
98.3128 892.00
98.378 874.00
98.4432 955.00
98.5084 945.00
98.5736 875.00
98.6388 864.00
98.704 827.00
98.7692 866.00
98.8344 918.00
98.8996 823.00
98.9648 846.00
99.03 860.00
99.0952 837.00
99.1604 818.00
99.2256 871.00
99.2908 862.00
99.356 850.00
99.4212 805.00
99.4864 808.00
99.5516 802.00
99.6168 796.00
99.682 831.00
99.7472 806.00
99.8124 888.00
99.8776 835.00
99.9428 898.00
100.008 838.00
100.073 855.00
100.095 927.00