File: data/xrd_creation/results/PG_2534-1.xy
9.903433 3149.00
9.968632 3103.00
10.0338 3158.00
10.099 3110.00
10.1642 2982.00
10.2294 3041.00
10.2946 2867.00
10.3598 3035.00
10.425 3006.00
10.4902 2923.00
10.5554 2833.00
10.6206 2844.00
10.6858 2870.00
10.751 2904.00
10.8162 2743.00
10.8814 2760.00
10.9466 2851.00
11.0118 2734.00
11.077 2786.00
11.1422 2739.00
11.2074 2715.00
11.2726 2746.00
11.3378 2660.00
11.403 2743.00
11.4682 2594.00
11.5334 2587.00
11.5986 2704.00
11.6638 2641.00
11.729 2542.00
11.7942 2625.00
11.8594 2582.00
11.9246 2590.00
11.9898 2517.00
12.055 2579.00
12.1202 2610.00
12.1854 2410.00
12.2506 2458.00
12.3158 2429.00
12.381 2440.00
12.4462 2395.00
12.5114 2428.00
12.5766 2413.00
12.6418 2405.00
12.707 2437.00
12.7722 2402.00
12.8374 2364.00
12.9026 2306.00
12.9678 2306.00
13.033 2335.00
13.0982 2376.00
13.1634 2362.00
13.2286 2261.00
13.2938 2336.00
13.359 2279.00
13.4242 2223.00
13.4894 2200.00
13.5546 2226.00
13.6198 2216.00
13.685 2269.00
13.7502 2340.00
13.8154 2338.00
13.8805 2411.00
13.9457 2199.00
14.0109 2297.00
14.0761 2429.00
14.1413 2387.00
14.2065 2398.00
14.2717 2447.00
14.3369 2421.00
14.4021 2321.00
14.4673 2375.00
14.5325 2368.00
14.5977 2322.00
14.6629 2308.00
14.7281 2169.00
14.7933 2192.00
14.8585 2190.00
14.9237 2133.00
14.9889 2178.00
15.0541 2127.00
15.1193 2095.00
15.1845 2184.00
15.2497 2106.00
15.3149 2159.00
15.3801 2205.00
15.4453 2085.00
15.5105 2176.00
15.5757 2127.00
15.6409 2073.00
15.7061 1977.00
15.7713 1909.00
15.8365 1939.00
15.9017 1966.00
15.9669 2052.00
16.0321 2026.00
16.0973 2115.00
16.1625 2069.00
16.2277 2121.00
16.2929 2276.00
16.3581 2390.00
16.4233 2660.00
16.4885 2938.00
16.5537 3396.00
16.6189 4274.00
16.6841 5913.00
16.7493 9091.00
16.8145 14270.00
16.8797 21850.00
16.9449 29317.00
17.0101 31793.00
17.0753 18211.00
17.1405 5993.00
17.2057 3413.00
17.2709 2848.00
17.3361 2563.00
17.4013 2357.00
17.4665 2135.00
17.5317 2075.00
17.5969 2017.00
17.6621 2070.00
17.7273 1970.00
17.7925 1987.00
17.8577 1887.00
17.9229 1951.00
17.9881 1891.00
18.0533 1890.00
18.1185 1963.00
18.1837 1804.00
18.2489 1818.00
18.3141 1884.00
18.3793 1837.00
18.4445 1830.00
18.5097 1801.00
18.5749 1866.00
18.6401 1881.00
18.7052 1784.00
18.7704 1952.00
18.8356 1815.00
18.9008 1827.00
18.966 1815.00
19.0312 1905.00
19.0964 1827.00
19.1616 1747.00
19.2268 1702.00
19.292 1671.00
19.3572 1718.00
19.4224 1682.00
19.4876 1658.00
19.5528 1640.00
19.618 1624.00
19.6832 1624.00
19.7484 1555.00
19.8136 1685.00
19.8788 1677.00
19.944 1645.00
20.0092 1625.00
20.0744 1669.00
20.1396 1628.00
20.2048 1646.00
20.27 1693.00
20.3352 1643.00
20.4004 1616.00
20.4656 1638.00
20.5308 1624.00
20.596 1610.00
20.6612 1582.00
20.7264 1583.00
20.7916 1553.00
20.8568 1552.00
20.922 1532.00
20.9872 1583.00
21.0524 1605.00
21.1176 1496.00
21.1828 1517.00
21.248 1568.00
21.3132 1530.00
21.3784 1570.00
21.4436 1548.00
21.5088 1613.00
21.574 1613.00
21.6392 1562.00
21.7044 1598.00
21.7696 1563.00
21.8348 1524.00
21.9 1581.00
21.9652 1472.00
22.0304 1561.00
22.0956 1540.00
22.1608 1557.00
22.226 1547.00
22.2912 1581.00
22.3564 1554.00
22.4216 1479.00
22.4868 1459.00
22.552 1475.00
22.6172 1391.00
22.6824 1380.00
22.7476 1355.00
22.8128 1367.00
22.878 1362.00
22.9432 1354.00
23.0084 1400.00
23.0736 1346.00
23.1388 1422.00
23.204 1410.00
23.2692 1438.00
23.3344 1516.00
23.3996 1529.00
23.4647 1523.00
23.5299 1644.00
23.5951 1872.00
23.6603 2380.00
23.7255 3119.00
23.7907 4337.00
23.8559 7024.00
23.9211 11249.00
23.9863 16885.00
24.0515 20905.00
24.1167 14594.00
24.1819 5213.00
24.2471 2278.00
24.3123 1781.00
24.3775 1688.00
24.4427 1538.00
24.5079 1433.00
24.5731 1329.00
24.6383 1397.00
24.7035 1350.00
24.7687 1404.00
24.8339 1410.00
24.8991 1359.00
24.9643 1399.00
25.0295 1304.00
25.0947 1334.00
25.1599 1317.00
25.2251 1282.00
25.2903 1237.00
25.3555 1286.00
25.4207 1358.00
25.4859 1256.00
25.5511 1307.00
25.6163 1228.00
25.6815 1273.00
25.7467 1316.00
25.8119 1283.00
25.8771 1265.00
25.9423 1271.00
26.0075 1240.00
26.0727 1246.00
26.1379 1342.00
26.2031 1301.00
26.2683 1287.00
26.3335 1258.00
26.3987 1257.00
26.4639 1438.00
26.5291 1249.00
26.5943 1332.00
26.6595 1246.00
26.7247 1176.00
26.7899 1256.00
26.8551 1244.00
26.9203 1249.00
26.9855 1245.00
27.0507 1239.00
27.1159 1174.00
27.1811 1184.00
27.2463 1204.00
27.3115 1233.00
27.3767 1263.00
27.4419 1239.00
27.5071 1207.00
27.5723 1220.00
27.6375 1226.00
27.7027 1188.00
27.7679 1166.00
27.8331 1145.00
27.8983 1214.00
27.9635 1206.00
28.0287 1192.00
28.0939 1222.00
28.1591 1279.00
28.2243 1312.00
28.2894 1290.00
28.3546 1379.00
28.4198 1439.00
28.485 1381.00
28.5502 1386.00
28.6154 1491.00
28.6806 1516.00
28.7458 1514.00
28.811 1782.00
28.8762 2168.00
28.9414 2712.00
29.0066 3629.00
29.0718 5260.00
29.137 8290.00
29.2022 13342.00
29.2674 21325.00
29.3326 29406.00
29.3978 27705.00
29.463 18157.00
29.5282 7796.00
29.5934 3300.00
29.6586 1930.00
29.7238 1757.00
29.789 1519.00
29.8542 1453.00
29.9194 1329.00
29.9846 1270.00
30.0498 1220.00
30.115 1314.00
30.1802 1238.00
30.2454 1232.00
30.3106 1206.00
30.3758 1209.00
30.441 1186.00
30.5062 1205.00
30.5714 1195.00
30.6366 1140.00
30.7018 1183.00
30.767 1189.00
30.8322 1133.00
30.8974 1130.00
30.9626 1042.00
31.0278 1139.00
31.093 1007.00
31.1582 1104.00
31.2234 1040.00
31.2886 1100.00
31.3538 1142.00
31.419 989.00
31.4842 1120.00
31.5494 999.00
31.6146 1069.00
31.6798 1009.00
31.745 1066.00
31.8102 1042.00
31.8754 1060.00
31.9406 998.00
32.0058 1009.00
32.071 1049.00
32.1362 1001.00
32.2014 1002.00
32.2666 957.00
32.3318 914.00
32.397 1012.00
32.4622 954.00
32.5274 1037.00
32.5926 930.00
32.6578 1035.00
32.723 986.00
32.7882 995.00
32.8534 992.00
32.9186 917.00
32.9838 970.00
33.0489 951.00
33.1141 947.00
33.1793 978.00
33.2445 950.00
33.3097 900.00
33.3749 966.00
33.4401 998.00
33.5053 953.00
33.5705 1172.00
33.6357 1234.00
33.7009 1569.00
33.7661 1838.00
33.8313 2440.00
33.8965 3460.00
33.9617 4780.00
34.0269 5678.00
34.0921 5130.00
34.1573 3777.00
34.2225 2226.00
34.2877 1217.00
34.3529 1033.00
34.4181 932.00
34.4833 930.00
34.5485 893.00
34.6137 921.00
34.6789 877.00
34.7441 832.00
34.8093 882.00
34.8745 866.00
34.9397 835.00
35.0049 917.00
35.0701 827.00
35.1353 812.00
35.2005 799.00
35.2657 819.00
35.3309 856.00
35.3961 786.00
35.4613 838.00
35.5265 822.00
35.5917 797.00
35.6569 760.00
35.7221 811.00
35.7873 842.00
35.8525 808.00
35.9177 771.00
35.9829 830.00
36.0481 818.00
36.1133 773.00
36.1785 773.00
36.2437 808.00
36.3089 785.00
36.3741 825.00
36.4393 842.00
36.5045 827.00
36.5697 802.00
36.6349 802.00
36.7001 754.00
36.7653 823.00
36.8305 856.00
36.8957 903.00
36.9609 982.00
37.0261 1151.00
37.0913 1328.00
37.1565 1648.00
37.2217 2004.00
37.2869 2184.00
37.3521 1538.00
37.4173 1145.00
37.4825 910.00
37.5477 810.00
37.6129 790.00
37.6781 821.00
37.7433 808.00
37.8085 909.00
37.8736 1035.00
37.9388 1187.00
38.004 1382.00
38.0692 1661.00
38.1344 2252.00
38.1996 2877.00
38.2648 2738.00
38.33 1848.00
38.3952 1091.00
38.4604 870.00
38.5256 792.00
38.5908 795.00
38.656 763.00
38.7212 757.00
38.7864 724.00
38.8516 767.00
38.9168 767.00
38.982 763.00
39.0472 709.00
39.1124 769.00
39.1776 711.00
39.2428 674.00
39.308 629.00
39.3732 679.00
39.4384 703.00
39.5036 715.00
39.5688 715.00
39.634 692.00
39.6992 679.00
39.7644 672.00
39.8296 655.00
39.8948 682.00
39.96 700.00
40.0252 698.00
40.0904 612.00
40.1556 683.00
40.2208 686.00
40.286 766.00
40.3512 712.00
40.4164 728.00
40.4816 670.00
40.5468 660.00
40.612 658.00
40.6772 698.00
40.7424 679.00
40.8076 661.00
40.8728 705.00
40.938 693.00
41.0032 652.00
41.0684 633.00
41.1336 643.00
41.1988 658.00
41.264 644.00
41.3292 657.00
41.3944 683.00
41.4596 672.00
41.5248 618.00
41.59 664.00
41.6552 705.00
41.7204 732.00
41.7856 760.00
41.8508 747.00
41.916 734.00
41.9812 782.00
42.0464 756.00
42.1116 833.00
42.1768 738.00
42.242 728.00
42.3072 767.00
42.3724 778.00
42.4376 751.00
42.5028 892.00
42.568 893.00
42.6332 993.00
42.6983 1163.00
42.7635 1514.00
42.8287 2066.00
42.8939 2751.00
42.9591 4039.00
43.0243 5799.00
43.0895 8644.00
43.1547 12345.00
43.2199 15893.00
43.2851 13715.00
43.3503 8628.00
43.4155 4665.00
43.4807 2087.00
43.5459 1381.00
43.6111 1097.00
43.6763 940.00
43.7415 862.00
43.8067 799.00
43.8719 779.00
43.9371 822.00
44.0023 817.00
44.0675 781.00
44.1327 717.00
44.1979 743.00
44.2631 734.00
44.3283 762.00
44.3935 724.00
44.4587 765.00
44.5239 744.00
44.5891 681.00
44.6543 753.00
44.7195 770.00
44.7847 786.00
44.8499 833.00
44.9151 1016.00
44.9803 1313.00
45.0455 1765.00
45.1107 2406.00
45.1759 3292.00
45.2411 4591.00
45.3063 6613.00
45.3715 8737.00
45.4367 10576.00
45.5019 7941.00
45.5671 5464.00
45.6323 2655.00
45.6975 1285.00
45.7627 929.00
45.8279 798.00
45.8931 778.00
45.9583 744.00
46.0235 721.00
46.0887 698.00
46.1539 658.00
46.2191 631.00
46.2843 655.00
46.3495 680.00
46.4147 673.00
46.4799 617.00
46.5451 633.00
46.6103 631.00
46.6755 629.00
46.7407 601.00
46.8059 629.00
46.8711 597.00
46.9363 649.00
47.0015 616.00
47.0667 632.00
47.1319 627.00
47.1971 570.00
47.2623 609.00
47.3275 619.00
47.3927 620.00
47.4579 558.00
47.523 666.00
47.5882 557.00
47.6534 627.00
47.7186 591.00
47.7838 616.00
47.849 640.00
47.9142 555.00
47.9794 591.00
48.0446 546.00
48.1098 591.00
48.175 601.00
48.2402 587.00
48.3054 562.00
48.3706 594.00
48.4358 615.00
48.501 625.00
48.5662 558.00
48.6314 560.00
48.6966 586.00
48.7618 571.00
48.827 556.00
48.8922 570.00
48.9574 582.00
49.0226 527.00
49.0878 559.00
49.153 528.00
49.2182 556.00
49.2834 506.00
49.3486 556.00
49.4138 559.00
49.479 543.00
49.5442 583.00
49.6094 556.00
49.6746 542.00
49.7398 584.00
49.805 529.00
49.8702 528.00
49.9354 548.00
50.0006 522.00
50.0658 523.00
50.131 516.00
50.1962 530.00
50.2614 531.00
50.3266 532.00
50.3918 536.00
50.457 522.00
50.5222 544.00
50.5874 557.00
50.6526 535.00
50.7178 554.00
50.783 529.00
50.8482 519.00
50.9134 555.00
50.9786 546.00
51.0438 531.00
51.109 508.00
51.1742 536.00
51.2394 548.00
51.3046 610.00
51.3698 605.00
51.435 715.00
51.5002 829.00
51.5654 890.00
51.6306 1041.00
51.6958 1349.00
51.761 1709.00
51.8262 1676.00
51.8914 1205.00
51.9566 1141.00
52.0218 763.00
52.087 670.00
52.1522 600.00
52.2174 600.00
52.2826 550.00
52.3477 510.00
52.4129 487.00
52.4781 506.00
52.5433 541.00
52.6085 542.00
52.6737 499.00
52.7389 474.00
52.8041 517.00
52.8693 538.00
52.9345 519.00
52.9997 518.00
53.0649 546.00
53.1301 514.00
53.1953 549.00
53.2605 512.00
53.3257 513.00
53.3909 528.00
53.4561 543.00
53.5213 523.00
53.5865 544.00
53.6517 514.00
53.7169 511.00
53.7821 519.00
53.8473 510.00
53.9125 496.00
53.9777 503.00
54.0429 474.00
54.1081 548.00
54.1733 540.00
54.2385 587.00
54.3037 658.00
54.3689 698.00
54.4341 770.00
54.4993 862.00
54.5645 1013.00
54.6297 1344.00
54.6949 1485.00
54.7601 1234.00
54.8253 1317.00
54.8905 1262.00
54.9557 1373.00
55.0209 1297.00
55.0861 978.00
55.1513 900.00
55.2165 596.00
55.2817 540.00
55.3469 542.00
55.4121 472.00
55.4773 439.00
55.5425 506.00
55.6077 502.00
55.6729 511.00
55.7381 519.00
55.8033 455.00
55.8685 544.00
55.9337 482.00
55.9989 497.00
56.0641 508.00
56.1293 507.00
56.1945 481.00
56.2597 480.00
56.3249 461.00
56.3901 487.00
56.4553 535.00
56.5205 485.00
56.5857 520.00
56.6509 445.00
56.7161 488.00
56.7813 480.00
56.8465 504.00
56.9117 466.00
56.9769 496.00
57.042 530.00
57.1073 513.00
57.1724 510.00
57.2376 526.00
57.3028 620.00
57.368 735.00
57.4332 864.00
57.4984 1134.00
57.5636 1390.00
57.6288 1905.00
57.694 2490.00
57.7592 2824.00
57.8244 2365.00
57.8896 1936.00
57.9548 1275.00
58.02 1005.00
58.0852 647.00
58.1504 521.00
58.2156 519.00
58.2808 509.00
58.346 487.00
58.4112 515.00
58.4764 444.00
58.5416 523.00
58.6068 468.00
58.672 487.00
58.7372 466.00
58.8024 436.00
58.8676 502.00
58.9328 491.00
58.998 514.00
59.0632 430.00
59.1284 484.00
59.1936 457.00
59.2588 519.00
59.324 454.00
59.3892 464.00
59.4544 486.00
59.5196 504.00
59.5848 494.00
59.65 494.00
59.7152 483.00
59.7804 439.00
59.8456 488.00
59.9108 504.00
59.976 535.00
60.0412 595.00
60.1064 699.00
60.1716 782.00
60.2368 924.00
60.302 1160.00
60.3672 1400.00
60.4324 1523.00
60.4976 1130.00
60.5628 1156.00
60.628 1048.00
60.6932 729.00
60.7584 640.00
60.8236 629.00
60.8888 485.00
60.954 503.00
61.0192 492.00
61.0844 527.00
61.1496 505.00
61.2148 536.00
61.28 479.00
61.3452 482.00
61.4104 494.00
61.4756 506.00
61.5408 530.00
61.606 528.00
61.6712 516.00
61.7364 517.00
61.8016 546.00
61.8667 546.00
61.932 576.00
61.9971 621.00
62.0623 717.00
62.1275 878.00
62.1927 1245.00
62.2579 1764.00
62.3231 2402.00
62.3883 3223.00
62.4535 4271.00
62.5187 5759.00
62.5839 6850.00
62.6491 5728.00
62.7143 4114.00
62.7795 3542.00
62.8447 2090.00
62.9099 1279.00
62.9751 924.00
63.0403 1004.00
63.1055 1035.00
63.1707 1220.00
63.2359 1316.00
63.3011 1483.00
63.3663 1609.00
63.4315 1661.00
63.4967 1387.00
63.5619 976.00
63.6271 911.00
63.6923 682.00
63.7575 525.00
63.8227 524.00
63.8879 461.00
63.9531 475.00
64.0183 445.00
64.0835 474.00
64.1487 438.00
64.2139 472.00
64.2791 434.00
64.3443 437.00
64.4095 436.00
64.4747 469.00
64.5399 413.00
64.6051 455.00
64.6703 418.00
64.7355 438.00
64.8007 415.00
64.8659 437.00
64.9311 499.00
64.9963 427.00
65.0615 402.00
65.1267 452.00
65.1919 439.00
65.2571 454.00
65.3223 416.00
65.3875 411.00
65.4527 418.00
65.5179 416.00
65.5831 428.00
65.6483 454.00
65.7135 439.00
65.7787 433.00
65.8439 420.00
65.9091 418.00
65.9743 413.00
66.0395 446.00
66.1047 430.00
66.1699 426.00
66.2351 449.00
66.3003 438.00
66.3655 412.00
66.4307 466.00
66.4959 416.00
66.561 407.00
66.6263 431.00
66.6915 446.00
66.7566 454.00
66.8218 444.00
66.887 393.00
66.9522 385.00
67.0174 439.00
67.0826 435.00
67.1478 443.00
67.213 427.00
67.2782 449.00
67.3434 406.00
67.4086 409.00
67.4738 423.00
67.539 437.00
67.6042 420.00
67.6694 418.00
67.7346 427.00
67.7998 457.00
67.865 398.00
67.9302 414.00
67.9954 457.00
68.0606 449.00
68.1258 475.00
68.191 453.00
68.2562 560.00
68.3214 663.00
68.3866 714.00
68.4518 799.00
68.517 944.00
68.5822 1157.00
68.6474 1375.00
68.7126 1409.00
68.7778 966.00
68.843 924.00
68.9082 840.00
68.9734 594.00
69.0386 488.00
69.1038 449.00
69.169 435.00
69.2342 439.00
69.2994 398.00
69.3646 430.00
69.4298 401.00
69.495 420.00
69.5602 460.00
69.6254 417.00
69.6906 397.00
69.7558 459.00
69.821 391.00
69.8862 399.00
69.9514 382.00
70.0166 471.00
70.0818 409.00
70.147 451.00
70.2122 425.00
70.2774 458.00
70.3426 435.00
70.4078 438.00
70.473 431.00
70.5382 479.00
70.6034 518.00
70.6686 593.00
70.7338 681.00
70.799 757.00
70.8642 939.00
70.9294 1219.00
70.9946 1487.00
71.0598 1681.00
71.125 1172.00
71.1902 1148.00
71.2554 1222.00
71.3205 1032.00
71.3858 750.00
71.451 638.00
71.5162 588.00
71.5813 508.00
71.6465 446.00
71.7117 455.00
71.7769 420.00
71.8421 423.00
71.9073 429.00
71.9725 394.00
72.0377 401.00
72.1029 409.00
72.1681 406.00
72.2333 428.00
72.2985 425.00
72.3637 426.00
72.4289 409.00
72.4941 405.00
72.5593 418.00
72.6245 439.00
72.6897 401.00
72.7549 398.00
72.8201 432.00
72.8853 447.00
72.9505 418.00
73.0157 447.00
73.0809 452.00
73.1461 463.00
73.2113 467.00
73.2765 574.00
73.3417 591.00
73.4069 722.00
73.4721 688.00
73.5373 608.00
73.6025 655.00
73.6677 678.00
73.7329 619.00
73.7981 580.00
73.8633 596.00
73.9285 496.00
73.9937 481.00
74.0589 485.00
74.1241 413.00
74.1893 415.00
74.2545 416.00
74.3197 444.00
74.3849 408.00
74.4501 468.00
74.5153 505.00
74.5805 519.00
74.6457 641.00
74.7109 681.00
74.7761 790.00
74.8413 956.00
74.9065 1063.00
74.9717 1093.00
75.0369 885.00
75.1021 821.00
75.1673 753.00
75.2325 650.00
75.2977 488.00
75.3629 434.00
75.4281 411.00
75.4933 415.00
75.5585 434.00
75.6237 447.00
75.6889 480.00
75.7541 560.00
75.8193 560.00
75.8845 739.00
75.9497 816.00
76.0149 996.00
76.0801 1239.00
76.1452 897.00
76.2104 758.00
76.2756 799.00
76.3409 781.00
76.406 566.00
76.4712 460.00
76.5364 497.00
76.6016 453.00
76.6668 387.00
76.732 389.00
76.7972 422.00
76.8624 405.00
76.9276 416.00
76.9928 396.00
77.058 454.00
77.1232 355.00
77.1884 404.00
77.2536 384.00
77.3188 389.00
77.384 406.00
77.4492 382.00
77.5144 450.00
77.5796 389.00
77.6448 406.00
77.71 409.00
77.7752 418.00
77.8404 429.00
77.9056 437.00
77.9708 473.00
78.036 557.00
78.1012 640.00
78.1664 639.00
78.2316 727.00
78.2968 763.00
78.362 883.00
78.4272 1107.00
78.4924 1099.00
78.5576 1245.00
78.6228 1625.00
78.688 1957.00
78.7532 2196.00
78.8184 2299.00
78.8836 2370.00
78.9488 1961.00
79.014 1622.00
79.0792 1271.00
79.1444 1112.00
79.2096 772.00
79.2748 600.00
79.34 477.00
79.4052 447.00
79.4704 428.00
79.5356 456.00
79.6008 393.00
79.666 361.00
79.7312 376.00
79.7964 342.00
79.8616 375.00
79.9268 396.00
79.992 401.00
80.0572 384.00
80.1224 425.00
80.1876 395.00
80.2528 369.00
80.318 344.00
80.3832 387.00
80.4484 343.00
80.5136 373.00
80.5788 382.00
80.644 392.00
80.7092 418.00
80.7744 409.00
80.8396 428.00
80.9048 511.00
80.9699 531.00
81.0351 595.00
81.1003 629.00
81.1655 786.00
81.2307 872.00
81.2959 844.00
81.3611 628.00
81.4263 628.00
81.4915 624.00
81.5567 528.00
81.6219 425.00
81.6871 417.00
81.7523 381.00
81.8175 399.00
81.8827 350.00
81.9479 339.00
82.0131 363.00
82.0783 377.00
82.1435 382.00
82.2087 363.00
82.2739 406.00
82.3391 365.00
82.4043 353.00
82.4695 334.00
82.5347 337.00
82.5999 372.00
82.6651 382.00
82.7303 363.00
82.7955 334.00
82.8607 364.00
82.9259 376.00
82.9911 391.00
83.0563 426.00
83.1215 468.00
83.1867 474.00
83.2519 559.00
83.3171 606.00
83.3823 548.00
83.4475 523.00
83.5127 516.00
83.5779 471.00
83.6431 509.00
83.7083 482.00
83.7735 442.00
83.8387 411.00
83.9039 394.00
83.9691 379.00
84.0343 358.00
84.0995 386.00
84.1647 362.00
84.2299 329.00
84.2951 355.00
84.3603 356.00
84.4255 296.00
84.4907 400.00
84.5559 367.00
84.6211 347.00
84.6863 304.00
84.7515 333.00
84.8167 333.00
84.8819 338.00
84.9471 341.00
85.0123 349.00
85.0775 384.00
85.1427 363.00
85.2079 360.00
85.2731 366.00
85.3383 305.00
85.4035 330.00
85.4687 346.00
85.5339 364.00
85.5991 345.00
85.6643 363.00
85.7295 343.00
85.7946 331.00
85.8598 346.00
85.925 354.00
85.9903 346.00
86.0554 352.00
86.1206 355.00
86.1858 334.00
86.251 400.00
86.3162 320.00
86.3814 337.00
86.4466 369.00
86.5118 384.00
86.577 326.00
86.6422 357.00
86.7074 334.00
86.7726 358.00
86.8378 348.00
86.903 364.00
86.9682 314.00
87.0334 345.00
87.0986 370.00
87.1638 365.00
87.229 320.00
87.2942 383.00
87.3594 336.00
87.4246 360.00
87.4898 378.00
87.555 345.00
87.6202 423.00
87.6854 460.00
87.7506 584.00
87.8158 570.00
87.881 719.00
87.9462 817.00
88.0114 718.00
88.0766 680.00
88.1418 598.00
88.207 704.00
88.2722 743.00
88.3374 775.00
88.4026 815.00
88.4678 773.00
88.533 759.00
88.5982 655.00
88.6634 557.00
88.7286 540.00
88.7938 514.00
88.859 470.00
88.9242 401.00
88.9894 332.00
89.0546 335.00
89.1198 357.00
89.185 327.00
89.2502 345.00
89.3154 325.00
89.3806 317.00
89.4458 376.00
89.511 366.00
89.5762 335.00
89.6414 353.00
89.7066 352.00
89.7718 304.00
89.837 335.00
89.9022 317.00
89.9674 359.00
90.0326 350.00
90.0978 332.00
90.163 363.00
90.2282 350.00
90.2934 379.00
90.3586 383.00
90.4238 393.00
90.489 396.00
90.5542 374.00
90.6193 374.00
90.6845 372.00
90.7497 366.00
90.8149 320.00
90.8801 350.00
90.9453 356.00
91.0105 355.00
91.0757 338.00
91.1409 324.00
91.2061 352.00
91.2713 344.00
91.3365 330.00
91.4017 361.00
91.4669 341.00
91.5321 314.00
91.5973 346.00
91.6625 346.00
91.7277 333.00
91.7929 320.00
91.8581 314.00
91.9233 329.00
91.9885 307.00
92.0537 369.00
92.1189 357.00
92.1841 352.00
92.2493 328.00
92.3145 346.00
92.3797 323.00
92.4449 346.00
92.5101 366.00
92.5753 358.00
92.6405 372.00
92.7057 387.00
92.7709 406.00
92.8361 430.00
92.9013 489.00
92.9665 534.00
93.0317 482.00
93.0969 540.00
93.1621 593.00
93.2273 559.00
93.2925 581.00
93.3577 543.00
93.4229 531.00
93.4881 483.00
93.5533 401.00
93.6185 463.00
93.6837 457.00
93.7489 420.00
93.8141 385.00
93.8793 479.00
93.9445 534.00
94.0097 569.00
94.0749 653.00
94.1401 842.00
94.2053 872.00
94.2705 867.00
94.3357 795.00
94.4009 707.00
94.4661 614.00
94.5313 638.00
94.5965 641.00
94.6617 505.00
94.7269 415.00
94.7921 421.00
94.8573 371.00
94.9225 353.00
94.9877 396.00
95.0529 365.00
95.1181 356.00
95.1833 367.00
95.2485 377.00
95.3137 422.00
95.3789 411.00
95.444 482.00
95.5092 528.00
95.5744 519.00
95.6396 486.00
95.7048 511.00
95.77 545.00
95.8352 589.00
95.9004 489.00
95.9656 398.00
96.0308 417.00
96.096 379.00
96.1612 384.00
96.2264 378.00
96.2916 345.00
96.3568 358.00
96.422 349.00
96.4872 352.00
96.5524 305.00
96.6176 364.00
96.6828 327.00
96.748 325.00
96.8132 354.00
96.8784 350.00
96.9436 357.00
97.0088 322.00
97.074 405.00
97.1392 382.00
97.2044 413.00
97.2696 410.00
97.3348 487.00
97.4 469.00
97.4652 452.00
97.5304 517.00
97.5956 523.00
97.6608 526.00
97.726 518.00
97.7912 542.00
97.8564 527.00
97.9216 621.00
97.9868 688.00
98.052 723.00
98.1172 881.00
98.1824 884.00
98.2476 612.00
98.3128 537.00
98.378 525.00
98.4432 546.00
98.5084 586.00
98.5736 474.00
98.6388 358.00
98.704 349.00
98.7692 326.00
98.8344 365.00
98.8996 341.00
98.9648 356.00
99.03 353.00
99.0952 356.00
99.1604 305.00
99.2256 320.00
99.2908 301.00
99.356 327.00
99.4212 339.00
99.4864 318.00
99.5516 337.00
99.6168 310.00
99.682 347.00
99.7472 326.00
99.8124 356.00
99.8776 340.00
99.9428 361.00
100.008 338.00
100.073 377.00
100.095 356.00