File: data/xrd_creation/results/PG_2052-1.xy
9.903433 2836.00
9.968632 2790.00
10.0338 2797.00
10.099 2809.00
10.1642 2775.00
10.2294 2860.00
10.2946 2791.00
10.3598 2726.00
10.425 2704.00
10.4902 2641.00
10.5554 2550.00
10.6206 2565.00
10.6858 2626.00
10.751 2581.00
10.8162 2586.00
10.8814 2577.00
10.9466 2615.00
11.0118 2478.00
11.077 2551.00
11.1422 2541.00
11.2074 2422.00
11.2726 2498.00
11.3378 2415.00
11.403 2520.00
11.4682 2461.00
11.5334 2490.00
11.5986 2449.00
11.6638 2358.00
11.729 2331.00
11.7942 2395.00
11.8594 2344.00
11.9246 2361.00
11.9898 2364.00
12.055 2415.00
12.1202 2398.00
12.1854 2316.00
12.2506 2446.00
12.3158 2439.00
12.381 2304.00
12.4462 2304.00
12.5114 2231.00
12.5766 2243.00
12.6418 2197.00
12.707 2277.00
12.7722 2255.00
12.8374 2292.00
12.9026 2308.00
12.9678 2212.00
13.033 2326.00
13.0982 2170.00
13.1634 2202.00
13.2286 2208.00
13.2938 2264.00
13.359 2168.00
13.4242 2203.00
13.4894 2182.00
13.5546 2185.00
13.6198 2237.00
13.685 2195.00
13.7502 2079.00
13.8154 2136.00
13.8805 2181.00
13.9457 2249.00
14.0109 2149.00
14.0761 2210.00
14.1413 2138.00
14.2065 2264.00
14.2717 2242.00
14.3369 2246.00
14.4021 2268.00
14.4673 2150.00
14.5325 2145.00
14.5977 2135.00
14.6629 2162.00
14.7281 2142.00
14.7933 2147.00
14.8585 2096.00
14.9237 2124.00
14.9889 2118.00
15.0541 2179.00
15.1193 2105.00
15.1845 2139.00
15.2497 2242.00
15.3149 2090.00
15.3801 2020.00
15.4453 2029.00
15.5105 2175.00
15.5757 2118.00
15.6409 2076.00
15.7061 2069.00
15.7713 2114.00
15.8365 2100.00
15.9017 2139.00
15.9669 2121.00
16.0321 2217.00
16.0973 2067.00
16.1625 2116.00
16.2277 2087.00
16.2929 2046.00
16.3581 2057.00
16.4233 2030.00
16.4885 2083.00
16.5537 2020.00
16.6189 1928.00
16.6841 1963.00
16.7493 2025.00
16.8145 2057.00
16.8797 2059.00
16.9449 2100.00
17.0101 2038.00
17.0753 2038.00
17.1405 2179.00
17.2057 2140.00
17.2709 2214.00
17.3361 2230.00
17.4013 2257.00
17.4665 2481.00
17.5317 2669.00
17.5969 2907.00
17.6621 3418.00
17.7273 3554.00
17.7925 2739.00
17.8577 2298.00
17.9229 2026.00
17.9881 2065.00
18.0533 1912.00
18.1185 1982.00
18.1837 1909.00
18.2489 2005.00
18.3141 1947.00
18.3793 1890.00
18.4445 1886.00
18.5097 1928.00
18.5749 1860.00
18.6401 1866.00
18.7052 1875.00
18.7704 1904.00
18.8356 1892.00
18.9008 1941.00
18.966 1886.00
19.0312 1905.00
19.0964 1904.00
19.1616 1836.00
19.2268 1861.00
19.292 1972.00
19.3572 1837.00
19.4224 1885.00
19.4876 1896.00
19.5528 1843.00
19.618 1789.00
19.6832 1838.00
19.7484 1820.00
19.8136 1791.00
19.8788 1819.00
19.944 1863.00
20.0092 1801.00
20.0744 1885.00
20.1396 1822.00
20.2048 1753.00
20.27 1803.00
20.3352 1862.00
20.4004 1789.00
20.4656 1823.00
20.5308 1718.00
20.596 1848.00
20.6612 1744.00
20.7264 1767.00
20.7916 1769.00
20.8568 1771.00
20.922 1793.00
20.9872 1713.00
21.0524 1745.00
21.1176 1668.00
21.1828 1788.00
21.248 1783.00
21.3132 1785.00
21.3784 1794.00
21.4436 1716.00
21.5088 1808.00
21.574 1762.00
21.6392 1798.00
21.7044 1819.00
21.7696 1769.00
21.8348 1829.00
21.9 1741.00
21.9652 1720.00
22.0304 1835.00
22.0956 1723.00
22.1608 1803.00
22.226 1745.00
22.2912 1832.00
22.3564 1720.00
22.4216 1827.00
22.4868 1674.00
22.552 1829.00
22.6172 1803.00
22.6824 1760.00
22.7476 1745.00
22.8128 1736.00
22.878 1701.00
22.9432 1743.00
23.0084 1754.00
23.0736 1727.00
23.1388 1755.00
23.204 1660.00
23.2692 1711.00
23.3344 1812.00
23.3996 1820.00
23.4647 1789.00
23.5299 1792.00
23.5951 1796.00
23.6603 1894.00
23.7255 1986.00
23.7907 2178.00
23.8559 2407.00
23.9211 3107.00
23.9863 4126.00
24.0515 6147.00
24.1167 9359.00
24.1819 10778.00
24.2471 6090.00
24.3123 4036.00
24.3775 3866.00
24.4427 3224.00
24.5079 2671.00
24.5731 2465.00
24.6383 2668.00
24.7035 2919.00
24.7687 3016.00
24.8339 2634.00
24.8991 2253.00
24.9643 2028.00
25.0295 1837.00
25.0947 1823.00
25.1599 1797.00
25.2251 1728.00
25.2903 1755.00
25.3555 1775.00
25.4207 1795.00
25.4859 1817.00
25.5511 1666.00
25.6163 1701.00
25.6815 1639.00
25.7467 1709.00
25.8119 1594.00
25.8771 1676.00
25.9423 1646.00
26.0075 1676.00
26.0727 1736.00
26.1379 1673.00
26.2031 1706.00
26.2683 1651.00
26.3335 1710.00
26.3987 1678.00
26.4639 1706.00
26.5291 1683.00
26.5943 1639.00
26.6595 1714.00
26.7247 1672.00
26.7899 1747.00
26.8551 1643.00
26.9203 1665.00
26.9855 1736.00
27.0507 1654.00
27.1159 1644.00
27.1811 1558.00
27.2463 1665.00
27.3115 1763.00
27.3767 1743.00
27.4419 1738.00
27.5071 1710.00
27.5723 1776.00
27.6375 1801.00
27.7027 1863.00
27.7679 1773.00
27.8331 2017.00
27.8983 1947.00
27.9635 2146.00
28.0287 2308.00
28.0939 2474.00
28.1591 3149.00
28.2243 3969.00
28.2894 5585.00
28.3546 8249.00
28.4198 11914.00
28.485 14190.00
28.5502 10655.00
28.6154 6088.00
28.6806 3988.00
28.7458 2923.00
28.811 2589.00
28.8762 2354.00
28.9414 2074.00
29.0066 2085.00
29.0718 1922.00
29.137 1927.00
29.2022 1821.00
29.2674 1842.00
29.3326 1780.00
29.3978 1763.00
29.463 1747.00
29.5282 1713.00
29.5934 1775.00
29.6586 1805.00
29.7238 1862.00
29.789 1875.00
29.8542 2140.00
29.9194 2469.00
29.9846 2983.00
30.0498 2386.00
30.115 1864.00
30.1802 1681.00
30.2454 1752.00
30.3106 1723.00
30.3758 1746.00
30.441 1735.00
30.5062 1827.00
30.5714 1796.00
30.6366 1829.00
30.7018 2091.00
30.767 2432.00
30.8322 3159.00
30.8974 4952.00
30.9626 8544.00
31.0278 10909.00
31.093 6251.00
31.1582 2906.00
31.2234 2275.00
31.2886 2235.00
31.3538 2292.00
31.419 2597.00
31.4842 2972.00
31.5494 3829.00
31.6146 5365.00
31.6798 7710.00
31.745 9942.00
31.8102 9079.00
31.8754 6304.00
31.9406 3656.00
32.0058 2587.00
32.071 2338.00
32.1362 2000.00
32.2014 1878.00
32.2666 1768.00
32.3318 1684.00
32.397 1625.00
32.4622 1627.00
32.5274 1596.00
32.5926 1529.00
32.6578 1531.00
32.723 1561.00
32.7882 1536.00
32.8534 1522.00
32.9186 1514.00
32.9838 1543.00
33.0489 1514.00
33.1141 1508.00
33.1793 1479.00
33.2445 1529.00
33.3097 1511.00
33.3749 1530.00
33.4401 1544.00
33.5053 1515.00
33.5705 1533.00
33.6357 1557.00
33.7009 1566.00
33.7661 1553.00
33.8313 1611.00
33.8965 1647.00
33.9617 1714.00
34.0269 1787.00
34.0921 2090.00
34.1573 2542.00
34.2225 3609.00
34.2877 4802.00
34.3529 4530.00
34.4181 4628.00
34.4833 4618.00
34.5485 3991.00
34.6137 3567.00
34.6789 3485.00
34.7441 3071.00
34.8093 2511.00
34.8745 2197.00
34.9397 1885.00
35.0049 1722.00
35.0701 1702.00
35.1353 1729.00
35.2005 1707.00
35.2657 1783.00
35.3309 1958.00
35.3961 2330.00
35.4613 3027.00
35.5265 3705.00
35.5917 3813.00
35.6569 3127.00
35.7221 2365.00
35.7873 1910.00
35.8525 1716.00
35.9177 1664.00
35.9829 1643.00
36.0481 1630.00
36.1133 1594.00
36.1785 1820.00
36.2437 1609.00
36.3089 1534.00
36.3741 1444.00
36.4393 1429.00
36.5045 1305.00
36.5697 1510.00
36.6349 1374.00
36.7001 1416.00
36.7653 1397.00
36.8305 1389.00
36.8957 1324.00
36.9609 1434.00
37.0261 1335.00
37.0913 1351.00
37.1565 1355.00
37.2217 1409.00
37.2869 1389.00
37.3521 1425.00
37.4173 1380.00
37.4825 1323.00
37.5477 1380.00
37.6129 1338.00
37.6781 1376.00
37.7433 1351.00
37.8085 1326.00
37.8736 1454.00
37.9388 1333.00
38.004 1388.00
38.0692 1404.00
38.1344 1362.00
38.1996 1350.00
38.2648 1414.00
38.33 1473.00
38.3952 1663.00
38.4604 1792.00
38.5256 1774.00
38.5908 1891.00
38.656 2418.00
38.7212 3092.00
38.7864 2723.00
38.8516 2437.00
38.9168 1930.00
38.982 1712.00
39.0472 1607.00
39.1124 1448.00
39.1776 1383.00
39.2428 1345.00
39.308 1361.00
39.3732 1337.00
39.4384 1354.00
39.5036 1326.00
39.5688 1399.00
39.634 1503.00
39.6992 1385.00
39.7644 1473.00
39.8296 1403.00
39.8948 1381.00
39.96 1397.00
40.0252 1349.00
40.0904 1284.00
40.1556 1340.00
40.2208 1446.00
40.286 1402.00
40.3512 1322.00
40.4164 1252.00
40.4816 1468.00
40.5468 1472.00
40.612 1464.00
40.6772 1539.00
40.7424 1609.00
40.8076 1984.00
40.8728 2540.00
40.938 2895.00
41.0032 3201.00
41.0684 2880.00
41.1336 2435.00
41.1988 1983.00
41.264 1938.00
41.3292 1897.00
41.3944 2016.00
41.4596 2189.00
41.5248 2018.00
41.59 2113.00
41.6552 2080.00
41.7204 1850.00
41.7856 1733.00
41.8508 1526.00
41.916 1510.00
41.9812 1323.00
42.0464 1371.00
42.1116 1300.00
42.1768 1243.00
42.242 1300.00
42.3072 1240.00
42.3724 1260.00
42.4376 1283.00
42.5028 1251.00
42.568 1305.00
42.6332 1360.00
42.6983 1292.00
42.7635 1217.00
42.8287 1257.00
42.8939 1252.00
42.9591 1193.00
43.0243 1237.00
43.0895 1275.00
43.1547 1185.00
43.2199 1222.00
43.2851 1287.00
43.3503 1218.00
43.4155 1338.00
43.4807 1200.00
43.5459 1226.00
43.6111 1290.00
43.6763 1254.00
43.7415 1254.00
43.8067 1249.00
43.8719 1284.00
43.9371 1275.00
44.0023 1249.00
44.0675 1354.00
44.1327 1301.00
44.1979 1163.00
44.2631 1213.00
44.3283 1343.00
44.3935 1319.00
44.4587 1371.00
44.5239 1323.00
44.5891 1311.00
44.6543 1372.00
44.7195 1321.00
44.7847 1463.00
44.8499 1440.00
44.9151 1534.00
44.9803 1669.00
45.0455 1915.00
45.1107 2208.00
45.1759 2130.00
45.2411 1814.00
45.3063 1681.00
45.3715 1513.00
45.4367 1485.00
45.5019 1545.00
45.5671 1549.00
45.6323 1666.00
45.6975 1897.00
45.7627 2042.00
45.8279 2236.00
45.8931 2195.00
45.9583 2455.00
46.0235 2845.00
46.0887 2063.00
46.1539 1932.00
46.2191 1482.00
46.2843 1385.00
46.3495 1425.00
46.4147 1332.00
46.4799 1528.00
46.5451 1787.00
46.6103 2406.00
46.6755 4275.00
46.7407 6544.00
46.8059 3780.00
46.8711 3684.00
46.9363 1746.00
47.0015 1366.00
47.0667 1277.00
47.1319 1354.00
47.1971 1304.00
47.2623 1327.00
47.3275 1239.00
47.3927 1276.00
47.4579 1236.00
47.523 1274.00
47.5882 1270.00
47.6534 1319.00
47.7186 1307.00
47.7838 1285.00
47.849 1431.00
47.9142 1639.00
47.9794 1413.00
48.0446 1456.00
48.1098 1301.00
48.175 1246.00
48.2402 1307.00
48.3054 1292.00
48.3706 1174.00
48.4358 1276.00
48.501 1216.00
48.5662 1236.00
48.6314 1264.00
48.6966 1239.00
48.7618 1201.00
48.827 1238.00
48.8922 1363.00
48.9574 1373.00
49.0226 1445.00
49.0878 1731.00
49.153 1680.00
49.2182 1713.00
49.2834 1933.00
49.3486 2036.00
49.4138 2476.00
49.479 3199.00
49.5442 3651.00
49.6094 3179.00
49.6746 2833.00
49.7398 2148.00
49.805 1742.00
49.8702 1658.00
49.9354 1517.00
50.0006 1608.00
50.0658 1781.00
50.131 1777.00
50.1962 2126.00
50.2614 2603.00
50.3266 3729.00
50.3918 4444.00
50.457 3804.00
50.5222 3344.00
50.5874 2706.00
50.6526 2317.00
50.7178 2365.00
50.783 2741.00
50.8482 3047.00
50.9134 2690.00
50.9786 2345.00
51.0438 1920.00
51.109 1602.00
51.1742 1577.00
51.2394 1560.00
51.3046 1629.00
51.3698 1683.00
51.435 1951.00
51.5002 1994.00
51.5654 1725.00
51.6306 1673.00
51.6958 1442.00
51.761 1443.00
51.8262 1265.00
51.8914 1235.00
51.9566 1295.00
52.0218 1289.00
52.087 1221.00
52.1522 1181.00
52.2174 1242.00
52.2826 1199.00
52.3477 1303.00
52.4129 1216.00
52.4781 1316.00
52.5433 1301.00
52.6085 1355.00
52.6737 1283.00
52.7389 1249.00
52.8041 1197.00
52.8693 1221.00
52.9345 1143.00
52.9997 1219.00
53.0649 1207.00
53.1301 1217.00
53.1953 1256.00
53.2605 1216.00
53.3257 1207.00
53.3909 1259.00
53.4561 1184.00
53.5213 1222.00
53.5865 1230.00
53.6517 1229.00
53.7169 1305.00
53.7821 1245.00
53.8473 1364.00
53.9125 1316.00
53.9777 1396.00
54.0429 1480.00
54.1081 1581.00
54.1733 1723.00
54.2385 2111.00
54.3037 2444.00
54.3689 2725.00
54.4341 2451.00
54.4993 2192.00
54.5645 1926.00
54.6297 1621.00
54.6949 1509.00
54.7601 1332.00
54.8253 1405.00
54.8905 1297.00
54.9557 1380.00
55.0209 1405.00
55.0861 1327.00
55.1513 1487.00
55.2165 1757.00
55.2817 2189.00
55.3469 2315.00
55.4121 2185.00
55.4773 2532.00
55.5425 2584.00
55.6077 2716.00
55.6729 2828.00
55.7381 2696.00
55.8033 2693.00
55.8685 2741.00
55.9337 2345.00
55.9989 2210.00
56.0641 2234.00
56.1293 2422.00
56.1945 2333.00
56.2597 2080.00
56.3249 1912.00
56.3901 1720.00
56.4553 1520.00
56.5205 1358.00
56.5857 1379.00
56.6509 1338.00
56.7161 1322.00
56.7813 1303.00
56.8465 1350.00
56.9117 1198.00
56.9769 1263.00
57.042 1308.00
57.1073 1396.00
57.1724 1384.00
57.2376 1542.00
57.3028 1645.00
57.368 1960.00
57.4332 2174.00
57.4984 1937.00
57.5636 1943.00
57.6288 1683.00
57.694 1480.00
57.7592 1511.00
57.8244 1349.00
57.8896 1413.00
57.9548 1527.00
58.02 1570.00
58.0852 1804.00
58.1504 1860.00
58.2156 1755.00
58.2808 1689.00
58.346 1627.00
58.4112 1598.00
58.4764 1706.00
58.5416 1964.00
58.6068 2282.00
58.672 2131.00
58.7372 1704.00
58.8024 1832.00
58.8676 1415.00
58.9328 1467.00
58.998 1775.00
59.0632 2219.00
59.1284 1617.00
59.1936 1720.00
59.2588 1586.00
59.324 1410.00
59.3892 1246.00
59.4544 1315.00
59.5196 1265.00
59.5848 1284.00
59.65 1367.00
59.7152 1353.00
59.7804 1473.00
59.8456 1610.00
59.9108 1696.00
59.976 2231.00
60.0412 2578.00
60.1064 2512.00
60.1716 2404.00
60.2368 2507.00
60.302 2296.00
60.3672 2091.00
60.4324 1852.00
60.4976 1751.00
60.5628 1544.00
60.628 1443.00
60.6932 1282.00
60.7584 1281.00
60.8236 1267.00
60.8888 1243.00
60.954 1299.00
61.0192 1236.00
61.0844 1248.00
61.1496 1172.00
61.2148 1284.00
61.28 1252.00
61.3452 1285.00
61.4104 1465.00
61.4756 1491.00
61.5408 1694.00
61.606 1871.00
61.6712 1831.00
61.7364 1698.00
61.8016 1740.00
61.8667 1642.00
61.932 1532.00
61.9971 1441.00
62.0623 1575.00
62.1275 1637.00
62.1927 1881.00
62.2579 1890.00
62.3231 1613.00
62.3883 1644.00
62.4535 1518.00
62.5187 1459.00
62.5839 1328.00
62.6491 1296.00
62.7143 1366.00
62.7795 1399.00
62.8447 1477.00
62.9099 1642.00
62.9751 1891.00
63.0403 2197.00
63.1055 2242.00
63.1707 2161.00
63.2359 1910.00
63.3011 1760.00
63.3663 1473.00
63.4315 1412.00
63.4967 1279.00
63.5619 1255.00
63.6271 1225.00
63.6923 1255.00
63.7575 1217.00
63.8227 1256.00
63.8879 1288.00
63.9531 1244.00
64.0183 1352.00
64.0835 1363.00
64.1487 1633.00
64.2139 2099.00
64.2791 1610.00
64.3443 1655.00
64.4095 1756.00
64.4747 1638.00
64.5399 1556.00
64.6051 1373.00
64.6703 1373.00
64.7355 1345.00
64.8007 1162.00
64.8659 1210.00
64.9311 1089.00
64.9963 1187.00
65.0615 1219.00
65.1267 1195.00
65.1919 1291.00
65.2571 1250.00
65.3223 1241.00
65.3875 1281.00
65.4527 1363.00
65.5179 1367.00
65.5831 1535.00
65.6483 1594.00
65.7135 1503.00
65.7787 1704.00
65.8439 1726.00
65.9091 1883.00
65.9743 1982.00
66.0395 1878.00
66.1047 1746.00
66.1699 1632.00
66.2351 1478.00
66.3003 1328.00
66.3655 1237.00
66.4307 1257.00
66.4959 1157.00
66.561 1156.00
66.6263 1181.00
66.6915 1104.00
66.7566 1141.00
66.8218 1116.00
66.887 1165.00
66.9522 1124.00
67.0174 1152.00
67.0826 1075.00
67.1478 1097.00
67.213 1122.00
67.2782 1039.00
67.3434 1107.00
67.4086 1057.00
67.4738 1077.00
67.539 1082.00
67.6042 1101.00
67.6694 974.00
67.7346 1123.00
67.7998 1055.00
67.865 1051.00
67.9302 1048.00
67.9954 1090.00
68.0606 1098.00
68.1258 1056.00
68.191 1074.00
68.2562 1111.00
68.3214 1059.00
68.3866 1076.00
68.4518 1128.00
68.517 1087.00
68.5822 1099.00
68.6474 1159.00
68.7126 1108.00
68.7778 1100.00
68.843 1117.00
68.9082 1098.00
68.9734 1211.00
69.0386 1149.00
69.1038 1217.00
69.169 1300.00
69.2342 1361.00
69.2994 1236.00
69.3646 1236.00
69.4298 1201.00
69.495 1184.00
69.5602 1220.00
69.6254 1187.00
69.6906 1137.00
69.7558 1267.00
69.821 1409.00
69.8862 1791.00
69.9514 2009.00
70.0166 1459.00
70.0818 1494.00
70.147 1554.00
70.2122 1143.00
70.2774 1162.00
70.3426 1170.00
70.4078 1190.00
70.473 1131.00
70.5382 1109.00
70.6034 1082.00
70.6686 1105.00
70.7338 1101.00
70.799 1137.00
70.8642 1064.00
70.9294 1094.00
70.9946 1109.00
71.0598 1182.00
71.125 1278.00
71.1902 1355.00
71.2554 1357.00
71.3205 1553.00
71.3858 1467.00
71.451 1616.00
71.5162 1586.00
71.5813 1619.00
71.6465 1507.00
71.7117 1569.00
71.7769 1650.00
71.8421 1324.00
71.9073 1307.00
71.9725 1334.00
72.0377 1273.00
72.1029 1235.00
72.1681 1252.00
72.2333 1352.00
72.2985 1338.00
72.3637 1311.00
72.4289 1257.00
72.4941 1303.00
72.5593 1222.00
72.6245 1235.00
72.6897 1292.00
72.7549 1290.00
72.8201 1220.00
72.8853 1238.00
72.9505 1160.00
73.0157 1212.00
73.0809 1153.00
73.1461 1144.00
73.2113 1073.00
73.2765 1075.00
73.3417 1071.00
73.4069 1021.00
73.4721 1093.00
73.5373 1037.00
73.6025 1068.00
73.6677 1193.00
73.7329 1139.00
73.7981 1133.00
73.8633 1109.00
73.9285 1107.00
73.9937 1046.00
74.0589 1097.00
74.1241 1052.00
74.1893 1140.00
74.2545 1090.00
74.3197 1133.00
74.3849 1164.00
74.4501 1173.00
74.5153 1227.00
74.5805 1386.00
74.6457 1732.00
74.7109 1907.00
74.7761 1486.00
74.8413 1487.00
74.9065 1708.00
74.9717 1489.00
75.0369 1408.00
75.1021 1311.00
75.1673 1413.00
75.2325 1458.00
75.2977 1541.00
75.3629 1430.00
75.4281 1382.00
75.4933 1434.00
75.5585 1348.00
75.6237 1309.00
75.6889 1273.00
75.7541 1116.00
75.8193 1103.00
75.8845 1154.00
75.9497 1184.00
76.0149 1099.00
76.0801 1143.00
76.1452 1103.00
76.2104 1081.00
76.2756 1088.00
76.3409 1094.00
76.406 1121.00
76.4712 1140.00
76.5364 1172.00
76.6016 1261.00
76.6668 1355.00
76.732 1269.00
76.7972 1268.00
76.8624 1325.00
76.9276 1274.00
76.9928 1190.00
77.058 1187.00
77.1232 1123.00
77.1884 1144.00
77.2536 1113.00
77.3188 1147.00
77.384 1168.00
77.4492 1135.00
77.5144 1208.00
77.5796 1260.00
77.6448 1258.00
77.71 1224.00
77.7752 1212.00
77.8404 1155.00
77.9056 1156.00
77.9708 1179.00
78.036 1052.00
78.1012 1037.00
78.1664 1139.00
78.2316 1168.00
78.2968 1186.00
78.362 1163.00
78.4272 1095.00
78.4924 1171.00
78.5576 1157.00
78.6228 1117.00
78.688 1082.00
78.7532 1140.00
78.8184 1163.00
78.8836 1131.00
78.9488 1238.00
79.014 1313.00
79.0792 1296.00
79.1444 1340.00
79.2096 1316.00
79.2748 1215.00
79.34 1287.00
79.4052 1227.00
79.4704 1123.00
79.5356 1230.00
79.6008 1281.00
79.666 1577.00
79.7312 1670.00
79.7964 1263.00
79.8616 1246.00
79.9268 1401.00
79.992 1404.00
80.0572 1614.00
80.1224 1383.00
80.1876 1250.00
80.2528 1224.00
80.318 1316.00
80.3832 1249.00
80.4484 1045.00
80.5136 1065.00
80.5788 1154.00
80.644 1128.00
80.7092 1117.00
80.7744 1044.00
80.8396 1123.00
80.9048 1097.00
80.9699 1151.00
81.0351 1037.00
81.1003 1101.00
81.1655 1066.00
81.2307 1064.00
81.2959 1114.00
81.3611 1030.00
81.4263 1101.00
81.4915 1089.00
81.5567 1184.00
81.6219 1171.00
81.6871 1264.00
81.7523 1369.00
81.8175 1590.00
81.8827 1503.00
81.9479 1296.00
82.0131 1309.00
82.0783 1342.00
82.1435 1270.00
82.2087 1199.00
82.2739 1097.00
82.3391 1146.00
82.4043 1142.00
82.4695 1235.00
82.5347 1287.00
82.5999 1241.00
82.6651 1278.00
82.7303 1289.00
82.7955 1365.00
82.8607 1286.00
82.9259 1243.00
82.9911 1236.00
83.0563 1293.00
83.1215 1265.00
83.1867 1310.00
83.2519 1277.00
83.3171 1398.00
83.3823 1336.00
83.4475 1378.00
83.5127 1248.00
83.5779 1354.00
83.6431 1215.00
83.7083 1270.00
83.7735 1298.00
83.8387 1245.00
83.9039 1211.00
83.9691 1291.00
84.0343 1299.00
84.0995 1381.00
84.1647 1299.00
84.2299 1421.00
84.2951 1320.00
84.3603 1308.00
84.4255 1269.00
84.4907 1209.00
84.5559 1186.00
84.6211 1204.00
84.6863 1168.00
84.7515 1092.00
84.8167 1093.00
84.8819 1161.00
84.9471 1186.00
85.0123 1168.00
85.0775 1365.00
85.1427 1190.00
85.2079 1145.00
85.2731 1180.00
85.3383 1184.00
85.4035 1096.00
85.4687 1051.00
85.5339 1193.00
85.5991 1139.00
85.6643 1288.00
85.7295 1135.00
85.7946 1057.00
85.8598 1102.00
85.925 1159.00
85.9903 1143.00
86.0554 1089.00
86.1206 1086.00
86.1858 1100.00
86.251 1166.00
86.3162 1141.00
86.3814 1207.00
86.4466 1200.00
86.5118 1150.00
86.577 1133.00
86.6422 1103.00
86.7074 1087.00
86.7726 1103.00
86.8378 1036.00
86.903 1047.00
86.9682 1056.00
87.0334 1033.00
87.0986 1111.00
87.1638 1050.00
87.229 1084.00
87.2942 1076.00
87.3594 1088.00
87.4246 1157.00
87.4898 1141.00
87.555 1251.00
87.6202 1271.00
87.6854 1247.00
87.7506 1177.00
87.8158 1189.00
87.881 1197.00
87.9462 1262.00
88.0114 1095.00
88.0766 1162.00
88.1418 1111.00
88.207 1219.00
88.2722 1251.00
88.3374 1315.00
88.4026 1344.00
88.4678 1336.00
88.533 1299.00
88.5982 1394.00
88.6634 1449.00
88.7286 1424.00
88.7938 1415.00
88.859 1275.00
88.9242 1265.00
88.9894 1269.00
89.0546 1228.00
89.1198 1132.00
89.185 1162.00
89.2502 1145.00
89.3154 1122.00
89.3806 1156.00
89.4458 1175.00
89.511 1176.00
89.5762 1213.00
89.6414 1148.00
89.7066 1228.00
89.7718 1242.00
89.837 1260.00
89.9022 1315.00
89.9674 1311.00
90.0326 1324.00
90.0978 1321.00
90.163 1256.00
90.2282 1277.00
90.2934 1244.00
90.3586 1204.00
90.4238 1182.00
90.489 1067.00
90.5542 1071.00
90.6193 1078.00
90.6845 1155.00
90.7497 1146.00
90.8149 1125.00
90.8801 1183.00
90.9453 1109.00
91.0105 1054.00
91.0757 1075.00
91.1409 1094.00
91.2061 1040.00
91.2713 1062.00
91.3365 1074.00
91.4017 1076.00
91.4669 1090.00
91.5321 1093.00
91.5973 1097.00
91.6625 1016.00
91.7277 1041.00
91.7929 1047.00
91.8581 1050.00
91.9233 1098.00
91.9885 1067.00
92.0537 1005.00
92.1189 1013.00
92.1841 987.00
92.2493 993.00
92.3145 1045.00
92.3797 952.00
92.4449 1007.00
92.5101 951.00
92.5753 976.00
92.6405 960.00
92.7057 970.00
92.7709 1009.00
92.8361 1005.00
92.9013 972.00
92.9665 994.00
93.0317 1026.00
93.0969 996.00
93.1621 970.00
93.2273 1023.00
93.2925 971.00
93.3577 1022.00
93.4229 1019.00
93.4881 1024.00
93.5533 1032.00
93.6185 1104.00
93.6837 1103.00
93.7489 1099.00
93.8141 1137.00
93.8793 1139.00
93.9445 1199.00
94.0097 1185.00
94.0749 1117.00
94.1401 1147.00
94.2053 1178.00
94.2705 1151.00
94.3357 1202.00
94.4009 1211.00
94.4661 1115.00
94.5313 1074.00
94.5965 1076.00
94.6617 1102.00
94.7269 1057.00
94.7921 1054.00
94.8573 1142.00
94.9225 1141.00
94.9877 1156.00
95.0529 1201.00
95.1181 1246.00
95.1833 1268.00
95.2485 1261.00
95.3137 1337.00
95.3789 1453.00
95.444 1587.00
95.5092 1340.00
95.5744 1166.00
95.6396 1214.00
95.7048 1217.00
95.77 1328.00
95.8352 1176.00
95.9004 1191.00
95.9656 1124.00
96.0308 1100.00
96.096 1143.00
96.1612 1139.00
96.2264 1200.00
96.2916 1349.00
96.3568 1386.00
96.422 1318.00
96.4872 1360.00
96.5524 1443.00
96.6176 1488.00
96.6828 1524.00
96.748 1465.00
96.8132 1496.00
96.8784 1486.00
96.9436 1454.00
97.0088 1333.00
97.074 1424.00
97.1392 1372.00
97.2044 1395.00
97.2696 1344.00
97.3348 1200.00
97.4 1217.00
97.4652 1164.00
97.5304 1227.00
97.5956 1146.00
97.6608 1179.00
97.726 1155.00
97.7912 1149.00
97.8564 1180.00
97.9216 1115.00
97.9868 1142.00
98.052 1245.00
98.1172 1191.00
98.1824 1220.00
98.2476 1257.00
98.3128 1224.00
98.378 1167.00
98.4432 1169.00
98.5084 1211.00
98.5736 1153.00
98.6388 1069.00
98.704 1152.00
98.7692 1243.00
98.8344 1206.00
98.8996 1192.00
98.9648 1137.00
99.03 1278.00
99.0952 1205.00
99.1604 1157.00
99.2256 1291.00
99.2908 1371.00
99.356 1529.00
99.4212 1374.00
99.4864 1372.00
99.5516 1433.00
99.6168 1571.00
99.682 1785.00
99.7472 1659.00
99.8124 1339.00
99.8776 1285.00
99.9428 1272.00
100.008 1397.00
100.073 1358.00
100.095 1306.00