File: data/xrd_creation/results/PG_2150-1.xy
9.903433 2792.00
9.968632 2791.00
10.0338 2664.00
10.099 2696.00
10.1642 2688.00
10.2294 2625.00
10.2946 2649.00
10.3598 2651.00
10.425 2624.00
10.4902 2570.00
10.5554 2535.00
10.6206 2537.00
10.6858 2548.00
10.751 2494.00
10.8162 2527.00
10.8814 2506.00
10.9466 2496.00
11.0118 2465.00
11.077 2489.00
11.1422 2441.00
11.2074 2401.00
11.2726 2423.00
11.3378 2344.00
11.403 2369.00
11.4682 2397.00
11.5334 2363.00
11.5986 2330.00
11.6638 2360.00
11.729 2266.00
11.7942 2277.00
11.8594 2271.00
11.9246 2220.00
11.9898 2182.00
12.055 2211.00
12.1202 2244.00
12.1854 2179.00
12.2506 2096.00
12.3158 2191.00
12.381 2125.00
12.4462 2085.00
12.5114 2099.00
12.5766 2127.00
12.6418 2077.00
12.707 2126.00
12.7722 2095.00
12.8374 2080.00
12.9026 2090.00
12.9678 1999.00
13.033 2081.00
13.0982 2075.00
13.1634 2062.00
13.2286 2062.00
13.2938 1950.00
13.359 1981.00
13.4242 2009.00
13.4894 2035.00
13.5546 2063.00
13.6198 2012.00
13.685 2017.00
13.7502 1978.00
13.8154 1939.00
13.8805 1945.00
13.9457 1967.00
14.0109 1977.00
14.0761 1881.00
14.1413 1932.00
14.2065 1999.00
14.2717 1922.00
14.3369 1998.00
14.4021 1932.00
14.4673 2002.00
14.5325 1962.00
14.5977 1984.00
14.6629 1900.00
14.7281 1948.00
14.7933 1934.00
14.8585 1957.00
14.9237 1882.00
14.9889 1969.00
15.0541 1993.00
15.1193 1926.00
15.1845 1896.00
15.2497 2062.00
15.3149 1951.00
15.3801 2167.00
15.4453 2340.00
15.5105 2485.00
15.5757 2764.00
15.6409 3270.00
15.7061 3945.00
15.7713 5260.00
15.8365 7167.00
15.9017 9545.00
15.9669 10163.00
16.0321 8013.00
16.0973 5244.00
16.1625 3528.00
16.2277 2719.00
16.2929 2423.00
16.3581 2261.00
16.4233 2157.00
16.4885 2066.00
16.5537 1982.00
16.6189 1995.00
16.6841 1888.00
16.7493 1926.00
16.8145 1886.00
16.8797 1795.00
16.9449 1851.00
17.0101 1781.00
17.0753 1883.00
17.1405 1835.00
17.2057 1796.00
17.2709 1786.00
17.3361 1760.00
17.4013 1806.00
17.4665 1717.00
17.5317 1619.00
17.5969 1770.00
17.6621 1730.00
17.7273 1795.00
17.7925 1618.00
17.8577 1614.00
17.9229 1688.00
17.9881 1676.00
18.0533 1593.00
18.1185 1644.00
18.1837 1650.00
18.2489 1658.00
18.3141 1629.00
18.3793 1630.00
18.4445 1601.00
18.5097 1631.00
18.5749 1642.00
18.6401 1618.00
18.7052 1656.00
18.7704 1660.00
18.8356 1678.00
18.9008 1593.00
18.966 1605.00
19.0312 1527.00
19.0964 1533.00
19.1616 1559.00
19.2268 1544.00
19.292 1625.00
19.3572 1624.00
19.4224 1543.00
19.4876 1475.00
19.5528 1521.00
19.618 1572.00
19.6832 1585.00
19.7484 1500.00
19.8136 1513.00
19.8788 1585.00
19.944 1605.00
20.0092 1523.00
20.0744 1517.00
20.1396 1531.00
20.2048 1533.00
20.27 1564.00
20.3352 1501.00
20.4004 1595.00
20.4656 1551.00
20.5308 1635.00
20.596 1689.00
20.6612 1970.00
20.7264 2389.00
20.7916 2893.00
20.8568 2662.00
20.922 1896.00
20.9872 1603.00
21.0524 1627.00
21.1176 1549.00
21.1828 1470.00
21.248 1515.00
21.3132 1421.00
21.3784 1492.00
21.4436 1460.00
21.5088 1409.00
21.574 1438.00
21.6392 1409.00
21.7044 1388.00
21.7696 1376.00
21.8348 1386.00
21.9 1330.00
21.9652 1385.00
22.0304 1414.00
22.0956 1384.00
22.1608 1381.00
22.226 1350.00
22.2912 1388.00
22.3564 1360.00
22.4216 1381.00
22.4868 1333.00
22.552 1353.00
22.6172 1340.00
22.6824 1371.00
22.7476 1386.00
22.8128 1462.00
22.878 1345.00
22.9432 1383.00
23.0084 1366.00
23.0736 1322.00
23.1388 1380.00
23.204 1387.00
23.2692 1377.00
23.3344 1347.00
23.3996 1261.00
23.4647 1346.00
23.5299 1302.00
23.5951 1297.00
23.6603 1316.00
23.7255 1319.00
23.7907 1296.00
23.8559 1362.00
23.9211 1393.00
23.9863 1283.00
24.0515 1291.00
24.1167 1370.00
24.1819 1329.00
24.2471 1379.00
24.3123 1262.00
24.3775 1279.00
24.4427 1378.00
24.5079 1285.00
24.5731 1319.00
24.6383 1265.00
24.7035 1315.00
24.7687 1332.00
24.8339 1291.00
24.8991 1253.00
24.9643 1319.00
25.0295 1230.00
25.0947 1289.00
25.1599 1222.00
25.2251 1351.00
25.2903 1322.00
25.3555 1244.00
25.4207 1308.00
25.4859 1299.00
25.5511 1293.00
25.6163 1315.00
25.6815 1247.00
25.7467 1315.00
25.8119 1265.00
25.8771 1247.00
25.9423 1225.00
26.0075 1272.00
26.0727 1259.00
26.1379 1255.00
26.2031 1274.00
26.2683 1168.00
26.3335 1262.00
26.3987 1292.00
26.4639 1246.00
26.5291 1321.00
26.5943 1362.00
26.6595 1376.00
26.7247 1370.00
26.7899 1337.00
26.8551 1442.00
26.9203 1379.00
26.9855 1450.00
27.0507 1557.00
27.1159 1584.00
27.1811 1794.00
27.2463 2054.00
27.3115 2448.00
27.3767 3314.00
27.4419 4798.00
27.5071 6740.00
27.5723 8088.00
27.6375 7625.00
27.7027 5647.00
27.7679 3919.00
27.8331 2949.00
27.8983 2736.00
27.9635 2702.00
28.0287 3412.00
28.0939 4496.00
28.1591 6599.00
28.2243 9484.00
28.2894 11109.00
28.3546 9490.00
28.4198 6203.00
28.485 3840.00
28.5502 2671.00
28.6154 2301.00
28.6806 1934.00
28.7458 1719.00
28.811 1709.00
28.8762 1604.00
28.9414 1556.00
29.0066 1701.00
29.0718 1781.00
29.137 1940.00
29.2022 2344.00
29.2674 3013.00
29.3326 5453.00
29.3978 10836.00
29.463 16239.00
29.5282 11241.00
29.5934 5065.00
29.6586 2471.00
29.7238 1925.00
29.789 1632.00
29.8542 1541.00
29.9194 1387.00
29.9846 1364.00
30.0498 1337.00
30.115 1335.00
30.1802 1266.00
30.2454 1227.00
30.3106 1192.00
30.3758 1226.00
30.441 1225.00
30.5062 1143.00
30.5714 1154.00
30.6366 1235.00
30.7018 1133.00
30.767 1190.00
30.8322 1180.00
30.8974 1188.00
30.9626 1171.00
31.0278 1204.00
31.093 1148.00
31.1582 1152.00
31.2234 1157.00
31.2886 1234.00
31.3538 1188.00
31.419 1201.00
31.4842 1209.00
31.5494 1296.00
31.6146 1416.00
31.6798 1597.00
31.745 1734.00
31.8102 2217.00
31.8754 2785.00
31.9406 2692.00
32.0058 2242.00
32.071 1799.00
32.1362 1448.00
32.2014 1306.00
32.2666 1216.00
32.3318 1221.00
32.397 1121.00
32.4622 1169.00
32.5274 1144.00
32.5926 1076.00
32.6578 1076.00
32.723 1123.00
32.7882 1117.00
32.8534 1102.00
32.9186 1136.00
32.9838 1076.00
33.0489 1007.00
33.1141 1095.00
33.1793 1071.00
33.2445 1041.00
33.3097 989.00
33.3749 1051.00
33.4401 1075.00
33.5053 1037.00
33.5705 1074.00
33.6357 1038.00
33.7009 1077.00
33.7661 1151.00
33.8313 1136.00
33.8965 1438.00
33.9617 1898.00
34.0269 3122.00
34.0921 4535.00
34.1573 3479.00
34.2225 2110.00
34.2877 1322.00
34.3529 1180.00
34.4181 1143.00
34.4833 1077.00
34.5485 1036.00
34.6137 1108.00
34.6789 968.00
34.7441 964.00
34.8093 988.00
34.8745 964.00
34.9397 925.00
35.0049 937.00
35.0701 1002.00
35.1353 1034.00
35.2005 941.00
35.2657 1007.00
35.3309 960.00
35.3961 1001.00
35.4613 964.00
35.5265 1011.00
35.5917 1089.00
35.6569 1048.00
35.7221 940.00
35.7873 977.00
35.8525 1027.00
35.9177 1080.00
35.9829 1075.00
36.0481 1216.00
36.1133 1462.00
36.1785 1909.00
36.2437 2105.00
36.3089 1938.00
36.3741 1627.00
36.4393 1360.00
36.5045 1177.00
36.5697 1059.00
36.6349 1029.00
36.7001 1018.00
36.7653 999.00
36.8305 998.00
36.8957 934.00
36.9609 886.00
37.0261 984.00
37.0913 1008.00
37.1565 938.00
37.2217 945.00
37.2869 942.00
37.3521 908.00
37.4173 914.00
37.4825 915.00
37.5477 835.00
37.6129 943.00
37.6781 975.00
37.7433 903.00
37.8085 917.00
37.8736 922.00
37.9388 914.00
38.004 909.00
38.0692 937.00
38.1344 969.00
38.1996 1105.00
38.2648 1018.00
38.33 1073.00
38.3952 965.00
38.4604 931.00
38.5256 964.00
38.5908 955.00
38.656 969.00
38.7212 1005.00
38.7864 971.00
38.8516 985.00
38.9168 949.00
38.982 1070.00
39.0472 1057.00
39.1124 1088.00
39.1776 1125.00
39.2428 1244.00
39.308 1276.00
39.3732 1504.00
39.4384 1730.00
39.5036 2203.00
39.5688 3010.00
39.634 4333.00
39.6992 5832.00
39.7644 6927.00
39.8296 6465.00
39.8948 5171.00
39.96 3777.00
40.0252 2870.00
40.0904 2645.00
40.1556 2509.00
40.2208 2017.00
40.286 1520.00
40.3512 1286.00
40.4164 1241.00
40.4816 1173.00
40.5468 1083.00
40.612 944.00
40.6772 984.00
40.7424 985.00
40.8076 936.00
40.8728 961.00
40.938 912.00
41.0032 900.00
41.0684 923.00
41.1336 909.00
41.1988 962.00
41.264 865.00
41.3292 952.00
41.3944 909.00
41.4596 955.00
41.5248 882.00
41.59 950.00
41.6552 904.00
41.7204 906.00
41.7856 926.00
41.8508 970.00
41.916 1047.00
41.9812 1040.00
42.0464 1029.00
42.1116 1117.00
42.1768 1052.00
42.242 1166.00
42.3072 1284.00
42.3724 1419.00
42.4376 1711.00
42.5028 1888.00
42.568 1896.00
42.6332 1740.00
42.6983 1444.00
42.7635 1258.00
42.8287 1141.00
42.8939 1100.00
42.9591 987.00
43.0243 975.00
43.0895 921.00
43.1547 892.00
43.2199 935.00
43.2851 909.00
43.3503 928.00
43.4155 957.00
43.4807 1023.00
43.5459 1019.00
43.6111 1022.00
43.6763 1160.00
43.7415 1869.00
43.8067 1890.00
43.8719 1594.00
43.9371 1293.00
44.0023 1066.00
44.0675 966.00
44.1327 948.00
44.1979 861.00
44.2631 902.00
44.3283 849.00
44.3935 851.00
44.4587 868.00
44.5239 883.00
44.5891 791.00
44.6543 829.00
44.7195 823.00
44.7847 841.00
44.8499 917.00
44.9151 847.00
44.9803 802.00
45.0455 853.00
45.1107 840.00
45.1759 808.00
45.2411 841.00
45.3063 803.00
45.3715 804.00
45.4367 914.00
45.5019 842.00
45.5671 877.00
45.6323 819.00
45.6975 899.00
45.7627 862.00
45.8279 869.00
45.8931 777.00
45.9583 890.00
46.0235 869.00
46.0887 899.00
46.1539 822.00
46.2191 905.00
46.2843 835.00
46.3495 866.00
46.4147 873.00
46.4799 888.00
46.5451 886.00
46.6103 830.00
46.6755 910.00
46.7407 911.00
46.8059 917.00
46.8711 954.00
46.9363 912.00
47.0015 1037.00
47.0667 1095.00
47.1319 1387.00
47.1971 1605.00
47.2623 1642.00
47.3275 1978.00
47.3927 2009.00
47.4579 1810.00
47.523 1646.00
47.5882 1292.00
47.6534 1256.00
47.7186 1135.00
47.7838 1078.00
47.849 1057.00
47.9142 1119.00
47.9794 1153.00
48.0446 1234.00
48.1098 1219.00
48.175 1453.00
48.2402 1639.00
48.3054 1980.00
48.3706 2422.00
48.4358 3033.00
48.501 3532.00
48.5662 3643.00
48.6314 3914.00
48.6966 4785.00
48.7618 7783.00
48.827 10361.00
48.8922 9033.00
48.9574 8669.00
49.0226 6177.00
49.0878 4618.00
49.153 3448.00
49.2182 2646.00
49.2834 2023.00
49.3486 1703.00
49.4138 1410.00
49.479 1322.00
49.5442 1150.00
49.6094 1085.00
49.6746 1018.00
49.7398 1025.00
49.805 1006.00
49.8702 970.00
49.9354 1040.00
50.0006 1115.00
50.0658 1220.00
50.131 1454.00
50.1962 1538.00
50.2614 1557.00
50.3266 1445.00
50.3918 1548.00
50.457 1386.00
50.5222 1233.00
50.5874 1038.00
50.6526 957.00
50.7178 876.00
50.783 794.00
50.8482 807.00
50.9134 851.00
50.9786 807.00
51.0438 861.00
51.109 822.00
51.1742 863.00
51.2394 851.00
51.3046 833.00
51.3698 810.00
51.435 808.00
51.5002 770.00
51.5654 846.00
51.6306 785.00
51.6958 808.00
51.761 782.00
51.8262 820.00
51.8914 841.00
51.9566 860.00
52.0218 815.00
52.087 848.00
52.1522 836.00
52.2174 894.00
52.2826 847.00
52.3477 836.00
52.4129 808.00
52.4781 816.00
52.5433 764.00
52.6085 749.00
52.6737 781.00
52.7389 837.00
52.8041 851.00
52.8693 839.00
52.9345 853.00
52.9997 843.00
53.0649 819.00
53.1301 800.00
53.1953 780.00
53.2605 841.00
53.3257 846.00
53.3909 979.00
53.4561 1383.00
53.5213 1395.00
53.5865 1128.00
53.6517 1108.00
53.7169 901.00
53.7821 725.00
53.8473 821.00
53.9125 843.00
53.9777 789.00
54.0429 804.00
54.1081 787.00
54.1733 812.00
54.2385 765.00
54.3037 765.00
54.3689 776.00
54.4341 757.00
54.4993 721.00
54.5645 813.00
54.6297 848.00
54.6949 836.00
54.7601 874.00
54.8253 866.00
54.8905 923.00
54.9557 1012.00
55.0209 989.00
55.0861 1040.00
55.1513 995.00
55.2165 1003.00
55.2817 1095.00
55.3469 1239.00
55.4121 1451.00
55.4773 1829.00
55.5425 2017.00
55.6077 2073.00
55.6729 1858.00
55.7381 1537.00
55.8033 1428.00
55.8685 1191.00
55.9337 1092.00
55.9989 1024.00
56.0641 954.00
56.1293 1011.00
56.1945 1016.00
56.2597 1042.00
56.3249 1303.00
56.3901 1568.00
56.4553 1776.00
56.5205 1742.00
56.5857 1695.00
56.6509 1664.00
56.7161 1428.00
56.7813 1174.00
56.8465 1098.00
56.9117 962.00
56.9769 940.00
57.042 898.00
57.1073 855.00
57.1724 878.00
57.2376 869.00
57.3028 887.00
57.368 811.00
57.4332 929.00
57.4984 913.00
57.5636 1017.00
57.6288 1024.00
57.694 1144.00
57.7592 1605.00
57.8244 2911.00
57.8896 4655.00
57.9548 3053.00
58.02 3259.00
58.0852 2609.00
58.1504 1612.00
58.2156 1294.00
58.2808 1175.00
58.346 1032.00
58.4112 997.00
58.4764 903.00
58.5416 828.00
58.6068 898.00
58.672 935.00
58.7372 892.00
58.8024 978.00
58.8676 1008.00
58.9328 1024.00
58.998 1220.00
59.0632 1142.00
59.1284 1206.00
59.1936 1272.00
59.2588 1538.00
59.324 1721.00
59.3892 1285.00
59.4544 1204.00
59.5196 1032.00
59.5848 870.00
59.65 836.00
59.7152 759.00
59.7804 820.00
59.8456 716.00
59.9108 743.00
59.976 709.00
60.0412 860.00
60.1064 714.00
60.1716 782.00
60.2368 734.00
60.302 749.00
60.3672 767.00
60.4324 741.00
60.4976 825.00
60.5628 787.00
60.628 1020.00
60.6932 1336.00
60.7584 1175.00
60.8236 1044.00
60.8888 1118.00
60.954 948.00
61.0192 792.00
61.0844 793.00
61.1496 756.00
61.2148 731.00
61.28 803.00
61.3452 770.00
61.4104 755.00
61.4756 798.00
61.5408 671.00
61.606 765.00
61.6712 795.00
61.7364 775.00
61.8016 713.00
61.8667 752.00
61.932 750.00
61.9971 854.00
62.0623 949.00
62.1275 925.00
62.1927 855.00
62.2579 807.00
62.3231 845.00
62.3883 794.00
62.4535 723.00
62.5187 743.00
62.5839 738.00
62.6491 727.00
62.7143 665.00
62.7795 778.00
62.8447 726.00
62.9099 732.00
62.9751 765.00
63.0403 726.00
63.1055 688.00
63.1707 752.00
63.2359 806.00
63.3011 782.00
63.3663 762.00
63.4315 913.00
63.4967 924.00
63.5619 841.00
63.6271 899.00
63.6923 841.00
63.7575 851.00
63.8227 877.00
63.8879 919.00
63.9531 980.00
64.0183 1185.00
64.0835 1214.00
64.1487 1481.00
64.2139 1709.00
64.2791 1783.00
64.3443 1736.00
64.4095 1681.00
64.4747 1471.00
64.5399 1335.00
64.6051 1216.00
64.6703 1169.00
64.7355 1240.00
64.8007 1332.00
64.8659 1073.00
64.9311 1099.00
64.9963 1080.00
65.0615 969.00
65.1267 965.00
65.1919 1055.00
65.2571 1078.00
65.3223 1043.00
65.3875 1109.00
65.4527 1107.00
65.5179 1000.00
65.5831 1011.00
65.6483 905.00
65.7135 841.00
65.7787 811.00
65.8439 821.00
65.9091 835.00
65.9743 833.00
66.0395 875.00
66.1047 1011.00
66.1699 978.00
66.2351 910.00
66.3003 984.00
66.3655 869.00
66.4307 853.00
66.4959 872.00
66.561 760.00
66.6263 772.00
66.6915 750.00
66.7566 724.00
66.8218 711.00
66.887 741.00
66.9522 779.00
67.0174 706.00
67.0826 755.00
67.1478 666.00
67.213 704.00
67.2782 732.00
67.3434 685.00
67.4086 703.00
67.4738 722.00
67.539 709.00
67.6042 696.00
67.6694 696.00
67.7346 700.00
67.7998 735.00
67.865 696.00
67.9302 755.00
67.9954 765.00
68.0606 726.00
68.1258 713.00
68.191 716.00
68.2562 713.00
68.3214 713.00
68.3866 707.00
68.4518 750.00
68.517 716.00
68.5822 699.00
68.6474 696.00
68.7126 682.00
68.7778 731.00
68.843 710.00
68.9082 753.00
68.9734 693.00
69.0386 736.00
69.1038 699.00
69.169 777.00
69.2342 752.00
69.2994 758.00
69.3646 762.00
69.4298 836.00
69.495 824.00
69.5602 924.00
69.6254 924.00
69.6906 1007.00
69.7558 1153.00
69.821 1308.00
69.8862 1440.00
69.9514 1565.00
70.0166 1709.00
70.0818 1567.00
70.147 1379.00
70.2122 1329.00
70.2774 1194.00
70.3426 1002.00
70.4078 970.00
70.473 911.00
70.5382 836.00
70.6034 873.00
70.6686 899.00
70.7338 859.00
70.799 887.00
70.8642 846.00
70.9294 881.00
70.9946 980.00
71.0598 944.00
71.125 1034.00
71.1902 1137.00
71.2554 1234.00
71.3205 1411.00
71.3858 1154.00
71.451 1094.00
71.5162 1101.00
71.5813 913.00
71.6465 882.00
71.7117 756.00
71.7769 793.00
71.8421 771.00
71.9073 725.00
71.9725 765.00
72.0377 734.00
72.1029 781.00
72.1681 752.00
72.2333 747.00
72.2985 722.00
72.3637 708.00
72.4289 791.00
72.4941 894.00
72.5593 1179.00
72.6245 1047.00
72.6897 975.00
72.7549 879.00
72.8201 990.00
72.8853 851.00
72.9505 837.00
73.0157 875.00
73.0809 902.00
73.1461 869.00
73.2113 830.00
73.2765 822.00
73.3417 814.00
73.4069 794.00
73.4721 699.00
73.5373 701.00
73.6025 738.00
73.6677 736.00
73.7329 769.00
73.7981 875.00
73.8633 936.00
73.9285 808.00
73.9937 872.00
74.0589 825.00
74.1241 774.00
74.1893 714.00
74.2545 739.00
74.3197 740.00
74.3849 742.00
74.4501 746.00
74.5153 755.00
74.5805 660.00
74.6457 678.00
74.7109 670.00
74.7761 795.00
74.8413 722.00
74.9065 765.00
74.9717 775.00
75.0369 860.00
75.1021 963.00
75.1673 860.00
75.2325 794.00
75.2977 902.00
75.3629 761.00
75.4281 765.00
75.4933 763.00
75.5585 875.00
75.6237 777.00
75.6889 819.00
75.7541 785.00
75.8193 861.00
75.8845 899.00
75.9497 997.00
76.0149 1133.00
76.0801 1107.00
76.1452 1094.00
76.2104 1143.00
76.2756 1193.00
76.3409 1269.00
76.406 1189.00
76.4712 1185.00
76.5364 1259.00
76.6016 1288.00
76.6668 1199.00
76.732 1197.00
76.7972 1107.00
76.8624 1140.00
76.9276 1038.00
76.9928 1010.00
77.058 1056.00
77.1232 1082.00
77.1884 1073.00
77.2536 1236.00
77.3188 1324.00
77.384 1380.00
77.4492 1576.00
77.5144 1620.00
77.5796 1901.00
77.6448 1957.00
77.71 1833.00
77.7752 1919.00
77.8404 1822.00
77.9056 1584.00
77.9708 1501.00
78.036 1344.00
78.1012 1220.00
78.1664 1138.00
78.2316 1095.00
78.2968 986.00
78.362 1010.00
78.4272 994.00
78.4924 911.00
78.5576 1068.00
78.6228 1001.00
78.688 1105.00
78.7532 1412.00
78.8184 1811.00
78.8836 1469.00
78.9488 1238.00
79.014 1274.00
79.0792 1266.00
79.1444 933.00
79.2096 908.00
79.2748 821.00
79.34 752.00
79.4052 761.00
79.4704 801.00
79.5356 749.00
79.6008 750.00
79.666 707.00
79.7312 754.00
79.7964 767.00
79.8616 744.00
79.9268 733.00
79.992 694.00
80.0572 701.00
80.1224 713.00
80.1876 718.00
80.2528 730.00
80.318 722.00
80.3832 757.00
80.4484 646.00
80.5136 721.00
80.5788 671.00
80.644 698.00
80.7092 690.00
80.7744 717.00
80.8396 721.00
80.9048 696.00
80.9699 763.00
81.0351 704.00
81.1003 803.00
81.1655 814.00
81.2307 1150.00
81.2959 1184.00
81.3611 981.00
81.4263 853.00
81.4915 1033.00
81.5567 962.00
81.6219 775.00
81.6871 747.00
81.7523 749.00
81.8175 735.00
81.8827 713.00
81.9479 704.00
82.0131 707.00
82.0783 719.00
82.1435 799.00
82.2087 791.00
82.2739 783.00
82.3391 822.00
82.4043 917.00
82.4695 1084.00
82.5347 991.00
82.5999 1002.00
82.6651 979.00
82.7303 993.00
82.7955 929.00
82.8607 891.00
82.9259 836.00
82.9911 817.00
83.0563 744.00
83.1215 757.00
83.1867 769.00
83.2519 709.00
83.3171 795.00
83.3823 715.00
83.4475 692.00
83.5127 779.00
83.5779 746.00
83.6431 773.00
83.7083 735.00
83.7735 810.00
83.8387 717.00
83.9039 687.00
83.9691 748.00
84.0343 683.00
84.0995 658.00
84.1647 771.00
84.2299 721.00
84.2951 679.00
84.3603 705.00
84.4255 734.00
84.4907 707.00
84.5559 655.00
84.6211 705.00
84.6863 747.00
84.7515 693.00
84.8167 761.00
84.8819 928.00
84.9471 969.00
85.0123 904.00
85.0775 882.00
85.1427 911.00
85.2079 911.00
85.2731 810.00
85.3383 783.00
85.4035 771.00
85.4687 759.00
85.5339 785.00
85.5991 765.00
85.6643 684.00
85.7295 763.00
85.7946 791.00
85.8598 693.00
85.925 741.00
85.9903 772.00
86.0554 750.00
86.1206 753.00
86.1858 765.00
86.251 729.00
86.3162 742.00
86.3814 730.00
86.4466 752.00
86.5118 739.00
86.577 704.00
86.6422 691.00
86.7074 706.00
86.7726 700.00
86.8378 672.00
86.903 708.00
86.9682 698.00
87.0334 695.00
87.0986 728.00
87.1638 751.00
87.229 730.00
87.2942 858.00
87.3594 925.00
87.4246 794.00
87.4898 735.00
87.555 778.00
87.6202 877.00
87.6854 760.00
87.7506 748.00
87.8158 724.00
87.881 746.00
87.9462 732.00
88.0114 671.00
88.0766 705.00
88.1418 663.00
88.207 686.00
88.2722 669.00
88.3374 747.00
88.4026 771.00
88.4678 794.00
88.533 790.00
88.5982 832.00
88.6634 843.00
88.7286 945.00
88.7938 950.00
88.859 975.00
88.9242 1103.00
88.9894 1087.00
89.0546 1072.00
89.1198 1029.00
89.185 975.00
89.2502 1021.00
89.3154 914.00
89.3806 955.00
89.4458 812.00
89.511 811.00
89.5762 812.00
89.6414 863.00
89.7066 1018.00
89.7718 972.00
89.837 895.00
89.9022 771.00
89.9674 920.00
90.0326 989.00
90.0978 959.00
90.163 930.00
90.2282 865.00
90.2934 920.00
90.3586 956.00
90.4238 1003.00
90.489 947.00
90.5542 959.00
90.6193 957.00
90.6845 962.00
90.7497 954.00
90.8149 1055.00
90.8801 1196.00
90.9453 1374.00
91.0105 1293.00
91.0757 1037.00
91.1409 1013.00
91.2061 1051.00
91.2713 1169.00
91.3365 945.00
91.4017 848.00
91.4669 857.00
91.5321 865.00
91.5973 844.00
91.6625 870.00
91.7277 797.00
91.7929 887.00
91.8581 811.00
91.9233 778.00
91.9885 862.00
92.0537 866.00
92.1189 924.00
92.1841 965.00
92.2493 904.00
92.3145 817.00
92.3797 843.00
92.4449 874.00
92.5101 885.00
92.5753 776.00
92.6405 766.00
92.7057 705.00
92.7709 729.00
92.8361 713.00
92.9013 693.00
92.9665 728.00
93.0317 704.00
93.0969 722.00
93.1621 761.00
93.2273 727.00
93.2925 785.00
93.3577 795.00
93.4229 855.00
93.4881 753.00
93.5533 731.00
93.6185 705.00
93.6837 818.00
93.7489 749.00
93.8141 764.00
93.8793 734.00
93.9445 660.00
94.0097 725.00
94.0749 685.00
94.1401 709.00
94.2053 709.00
94.2705 681.00
94.3357 747.00
94.4009 658.00
94.4661 687.00
94.5313 761.00
94.5965 788.00
94.6617 762.00
94.7269 788.00
94.7921 786.00
94.8573 798.00
94.9225 761.00
94.9877 741.00
95.0529 775.00
95.1181 757.00
95.1833 820.00
95.2485 873.00
95.3137 787.00
95.3789 871.00
95.444 876.00
95.5092 938.00
95.5744 1011.00
95.6396 1079.00
95.7048 1156.00
95.77 1400.00
95.8352 1415.00
95.9004 1256.00
95.9656 1131.00
96.0308 1121.00
96.096 1139.00
96.1612 1078.00
96.2264 1052.00
96.2916 897.00
96.3568 968.00
96.422 928.00
96.4872 955.00
96.5524 890.00
96.6176 940.00
96.6828 868.00
96.748 964.00
96.8132 931.00
96.8784 965.00
96.9436 1065.00
97.0088 1094.00
97.074 1003.00
97.1392 964.00
97.2044 978.00
97.2696 955.00
97.3348 891.00
97.4 911.00
97.4652 820.00
97.5304 825.00
97.5956 802.00
97.6608 795.00
97.726 784.00
97.7912 729.00
97.8564 759.00
97.9216 728.00
97.9868 759.00
98.052 865.00
98.1172 874.00
98.1824 1016.00
98.2476 1160.00
98.3128 931.00
98.378 896.00
98.4432 825.00
98.5084 920.00
98.5736 959.00
98.6388 884.00
98.704 777.00
98.7692 749.00
98.8344 695.00
98.8996 721.00
98.9648 723.00
99.03 779.00
99.0952 721.00
99.1604 742.00
99.2256 773.00
99.2908 783.00
99.356 832.00
99.4212 1025.00
99.4864 975.00
99.5516 864.00
99.6168 831.00
99.682 758.00
99.7472 854.00
99.8124 858.00
99.8776 752.00
99.9428 710.00
100.008 759.00
100.073 754.00
100.095 698.00