File: data/xrd_creation/results/PG_2141-1.xy
9.903433 2647.00
9.968632 2624.00
10.0338 2567.00
10.099 2562.00
10.1642 2612.00
10.2294 2509.00
10.2946 2543.00
10.3598 2465.00
10.425 2540.00
10.4902 2488.00
10.5554 2465.00
10.6206 2470.00
10.6858 2478.00
10.751 2512.00
10.8162 2314.00
10.8814 2331.00
10.9466 2323.00
11.0118 2318.00
11.077 2390.00
11.1422 2325.00
11.2074 2232.00
11.2726 2272.00
11.3378 2218.00
11.403 2223.00
11.4682 2208.00
11.5334 2112.00
11.5986 2203.00
11.6638 2106.00
11.729 2155.00
11.7942 2128.00
11.8594 2054.00
11.9246 2057.00
11.9898 2081.00
12.055 1960.00
12.1202 2051.00
12.1854 2128.00
12.2506 1986.00
12.3158 1951.00
12.381 2025.00
12.4462 1979.00
12.5114 1953.00
12.5766 2049.00
12.6418 1936.00
12.707 1953.00
12.7722 1992.00
12.8374 1968.00
12.9026 1899.00
12.9678 1976.00
13.033 1841.00
13.0982 1891.00
13.1634 1868.00
13.2286 1845.00
13.2938 1864.00
13.359 1941.00
13.4242 1810.00
13.4894 1848.00
13.5546 1844.00
13.6198 1853.00
13.685 1935.00
13.7502 1988.00
13.8154 2233.00
13.8805 2268.00
13.9457 2730.00
14.0109 3201.00
14.0761 3696.00
14.1413 2508.00
14.2065 1797.00
14.2717 1807.00
14.3369 1848.00
14.4021 1798.00
14.4673 1785.00
14.5325 1786.00
14.5977 1812.00
14.6629 1803.00
14.7281 1711.00
14.7933 1787.00
14.8585 1725.00
14.9237 1779.00
14.9889 1697.00
15.0541 1721.00
15.1193 1787.00
15.1845 1782.00
15.2497 1767.00
15.3149 1844.00
15.3801 1976.00
15.4453 1914.00
15.5105 2128.00
15.5757 2342.00
15.6409 2602.00
15.7061 3180.00
15.7713 4039.00
15.8365 5490.00
15.9017 7163.00
15.9669 7745.00
16.0321 6375.00
16.0973 4103.00
16.1625 2887.00
16.2277 2259.00
16.2929 2032.00
16.3581 1861.00
16.4233 1801.00
16.4885 1656.00
16.5537 1690.00
16.6189 1719.00
16.6841 1622.00
16.7493 1636.00
16.8145 1593.00
16.8797 1665.00
16.9449 1597.00
17.0101 1548.00
17.0753 1608.00
17.1405 1619.00
17.2057 1461.00
17.2709 1588.00
17.3361 1563.00
17.4013 1530.00
17.4665 1545.00
17.5317 1470.00
17.5969 1569.00
17.6621 1434.00
17.7273 1464.00
17.7925 1428.00
17.8577 1458.00
17.9229 1414.00
17.9881 1418.00
18.0533 1316.00
18.1185 1418.00
18.1837 1430.00
18.2489 1410.00
18.3141 1367.00
18.3793 1409.00
18.4445 1365.00
18.5097 1380.00
18.5749 1354.00
18.6401 1326.00
18.7052 1429.00
18.7704 1328.00
18.8356 1269.00
18.9008 1277.00
18.966 1333.00
19.0312 1360.00
19.0964 1291.00
19.1616 1313.00
19.2268 1285.00
19.292 1280.00
19.3572 1349.00
19.4224 1366.00
19.4876 1356.00
19.5528 1314.00
19.618 1376.00
19.6832 1442.00
19.7484 1437.00
19.8136 1390.00
19.8788 1234.00
19.944 1334.00
20.0092 1251.00
20.0744 1299.00
20.1396 1207.00
20.2048 1240.00
20.27 1233.00
20.3352 1203.00
20.4004 1269.00
20.4656 1256.00
20.5308 1210.00
20.596 1238.00
20.6612 1239.00
20.7264 1246.00
20.7916 1238.00
20.8568 1250.00
20.922 1262.00
20.9872 1114.00
21.0524 1197.00
21.1176 1180.00
21.1828 1221.00
21.248 1166.00
21.3132 1129.00
21.3784 1144.00
21.4436 1130.00
21.5088 1110.00
21.574 1155.00
21.6392 1188.00
21.7044 1136.00
21.7696 1126.00
21.8348 1079.00
21.9 1177.00
21.9652 1071.00
22.0304 1176.00
22.0956 1197.00
22.1608 1098.00
22.226 1106.00
22.2912 1134.00
22.3564 1165.00
22.4216 1122.00
22.4868 1113.00
22.552 1073.00
22.6172 1051.00
22.6824 1077.00
22.7476 1104.00
22.8128 1132.00
22.878 1107.00
22.9432 1109.00
23.0084 1121.00
23.0736 1088.00
23.1388 1072.00
23.204 1078.00
23.2692 1108.00
23.3344 1047.00
23.3996 1031.00
23.4647 1010.00
23.5299 1096.00
23.5951 1118.00
23.6603 1057.00
23.7255 1000.00
23.7907 1037.00
23.8559 1044.00
23.9211 1052.00
23.9863 1050.00
24.0515 1051.00
24.1167 1017.00
24.1819 1074.00
24.2471 990.00
24.3123 1008.00
24.3775 1011.00
24.4427 1046.00
24.5079 963.00
24.5731 968.00
24.6383 1043.00
24.7035 1030.00
24.7687 1018.00
24.8339 951.00
24.8991 1057.00
24.9643 1013.00
25.0295 994.00
25.0947 989.00
25.1599 1031.00
25.2251 1012.00
25.2903 986.00
25.3555 1009.00
25.4207 1002.00
25.4859 990.00
25.5511 969.00
25.6163 1023.00
25.6815 1032.00
25.7467 1069.00
25.8119 1167.00
25.8771 1048.00
25.9423 1003.00
26.0075 997.00
26.0727 978.00
26.1379 1010.00
26.2031 909.00
26.2683 905.00
26.3335 983.00
26.3987 931.00
26.4639 969.00
26.5291 976.00
26.5943 968.00
26.6595 1051.00
26.7247 1084.00
26.7899 1105.00
26.8551 1077.00
26.9203 1059.00
26.9855 1117.00
27.0507 1223.00
27.1159 1287.00
27.1811 1381.00
27.2463 1613.00
27.3115 1930.00
27.3767 2720.00
27.4419 3636.00
27.5071 5160.00
27.5723 6377.00
27.6375 6128.00
27.7027 4902.00
27.7679 4122.00
27.8331 4942.00
27.8983 8695.00
27.9635 17518.00
28.0287 21370.00
28.0939 12380.00
28.1591 6938.00
28.2243 8107.00
28.2894 8877.00
28.3546 7564.00
28.4198 4929.00
28.485 3172.00
28.5502 2365.00
28.6154 2094.00
28.6806 2161.00
28.7458 1810.00
28.811 1360.00
28.8762 1275.00
28.9414 1308.00
29.0066 1197.00
29.0718 990.00
29.137 987.00
29.2022 944.00
29.2674 972.00
29.3326 959.00
29.3978 940.00
29.463 925.00
29.5282 966.00
29.5934 894.00
29.6586 964.00
29.7238 867.00
29.789 927.00
29.8542 916.00
29.9194 864.00
29.9846 893.00
30.0498 865.00
30.115 875.00
30.1802 869.00
30.2454 938.00
30.3106 828.00
30.3758 859.00
30.441 909.00
30.5062 845.00
30.5714 825.00
30.6366 788.00
30.7018 818.00
30.767 815.00
30.8322 819.00
30.8974 907.00
30.9626 864.00
31.0278 823.00
31.093 841.00
31.1582 826.00
31.2234 839.00
31.2886 834.00
31.3538 850.00
31.419 850.00
31.4842 856.00
31.5494 954.00
31.6146 1033.00
31.6798 1128.00
31.745 1324.00
31.8102 1628.00
31.8754 2007.00
31.9406 2097.00
32.0058 1734.00
32.071 1466.00
32.1362 1392.00
32.2014 1640.00
32.2666 2613.00
32.3318 5077.00
32.397 7936.00
32.4622 5052.00
32.5274 2298.00
32.5926 1251.00
32.6578 1022.00
32.723 883.00
32.7882 872.00
32.8534 804.00
32.9186 811.00
32.9838 769.00
33.0489 774.00
33.1141 768.00
33.1793 675.00
33.2445 770.00
33.3097 675.00
33.3749 741.00
33.4401 696.00
33.5053 692.00
33.5705 673.00
33.6357 638.00
33.7009 693.00
33.7661 665.00
33.8313 659.00
33.8965 664.00
33.9617 669.00
34.0269 714.00
34.0921 741.00
34.1573 745.00
34.2225 704.00
34.2877 669.00
34.3529 712.00
34.4181 720.00
34.4833 627.00
34.5485 662.00
34.6137 616.00
34.6789 673.00
34.7441 691.00
34.8093 617.00
34.8745 690.00
34.9397 701.00
35.0049 692.00
35.0701 693.00
35.1353 689.00
35.2005 900.00
35.2657 1316.00
35.3309 2200.00
35.3961 2013.00
35.4613 1461.00
35.5265 895.00
35.5917 711.00
35.6569 709.00
35.7221 603.00
35.7873 673.00
35.8525 695.00
35.9177 653.00
35.9829 687.00
36.0481 733.00
36.1133 739.00
36.1785 867.00
36.2437 1041.00
36.3089 1096.00
36.3741 941.00
36.4393 969.00
36.5045 806.00
36.5697 725.00
36.6349 661.00
36.7001 631.00
36.7653 660.00
36.8305 704.00
36.8957 658.00
36.9609 666.00
37.0261 593.00
37.0913 598.00
37.1565 627.00
37.2217 592.00
37.2869 585.00
37.3521 616.00
37.4173 633.00
37.4825 565.00
37.5477 602.00
37.6129 578.00
37.6781 585.00
37.7433 625.00
37.8085 602.00
37.8736 513.00
37.9388 558.00
38.004 579.00
38.0692 562.00
38.1344 550.00
38.1996 610.00
38.2648 569.00
38.33 563.00
38.3952 590.00
38.4604 613.00
38.5256 584.00
38.5908 598.00
38.656 599.00
38.7212 621.00
38.7864 609.00
38.8516 619.00
38.9168 659.00
38.982 649.00
39.0472 664.00
39.1124 692.00
39.1776 706.00
39.2428 761.00
39.308 811.00
39.3732 1029.00
39.4384 1169.00
39.5036 1469.00
39.5688 1993.00
39.634 2903.00
39.6992 4212.00
39.7644 5325.00
39.8296 5007.00
39.8948 4101.00
39.96 2853.00
40.0252 2041.00
40.0904 1435.00
40.1556 1132.00
40.2208 893.00
40.286 838.00
40.3512 742.00
40.4164 694.00
40.4816 661.00
40.5468 589.00
40.612 597.00
40.6772 605.00
40.7424 600.00
40.8076 578.00
40.8728 590.00
40.938 554.00
41.0032 585.00
41.0684 527.00
41.1336 528.00
41.1988 570.00
41.264 553.00
41.3292 562.00
41.3944 556.00
41.4596 519.00
41.5248 577.00
41.59 548.00
41.6552 588.00
41.7204 548.00
41.7856 537.00
41.8508 566.00
41.916 526.00
41.9812 611.00
42.0464 545.00
42.1116 625.00
42.1768 657.00
42.242 743.00
42.3072 1020.00
42.3724 1538.00
42.4376 1372.00
42.5028 1522.00
42.568 1291.00
42.6332 1096.00
42.6983 980.00
42.7635 825.00
42.8287 701.00
42.8939 678.00
42.9591 566.00
43.0243 585.00
43.0895 551.00
43.1547 572.00
43.2199 591.00
43.2851 498.00
43.3503 562.00
43.4155 487.00
43.4807 494.00
43.5459 516.00
43.6111 518.00
43.6763 557.00
43.7415 505.00
43.8067 494.00
43.8719 539.00
43.9371 503.00
44.0023 542.00
44.0675 507.00
44.1327 501.00
44.1979 476.00
44.2631 484.00
44.3283 495.00
44.3935 497.00
44.4587 468.00
44.5239 530.00
44.5891 559.00
44.6543 521.00
44.7195 521.00
44.7847 443.00
44.8499 506.00
44.9151 509.00
44.9803 531.00
45.0455 498.00
45.1107 488.00
45.1759 464.00
45.2411 496.00
45.3063 466.00
45.3715 472.00
45.4367 532.00
45.5019 552.00
45.5671 499.00
45.6323 546.00
45.6975 590.00
45.7627 601.00
45.8279 578.00
45.8931 640.00
45.9583 652.00
46.0235 733.00
46.0887 908.00
46.1539 1330.00
46.2191 2859.00
46.2843 7442.00
46.3495 4639.00
46.4147 4505.00
46.4799 1869.00
46.5451 938.00
46.6103 833.00
46.6755 699.00
46.7407 631.00
46.8059 585.00
46.8711 589.00
46.9363 553.00
47.0015 596.00
47.0667 621.00
47.1319 694.00
47.1971 835.00
47.2623 974.00
47.3275 1225.00
47.3927 1336.00
47.4579 1246.00
47.523 1064.00
47.5882 945.00
47.6534 780.00
47.7186 672.00
47.7838 639.00
47.849 649.00
47.9142 653.00
47.9794 700.00
48.0446 732.00
48.1098 774.00
48.175 895.00
48.2402 1013.00
48.3054 1218.00
48.3706 1588.00
48.4358 2113.00
48.501 2550.00
48.5662 2532.00
48.6314 2477.00
48.6966 2501.00
48.7618 2717.00
48.827 3279.00
48.8922 3824.00
48.9574 3985.00
49.0226 3661.00
49.0878 3031.00
49.153 2135.00
49.2182 1707.00
49.2834 1322.00
49.3486 1055.00
49.4138 860.00
49.479 784.00
49.5442 673.00
49.6094 670.00
49.6746 625.00
49.7398 609.00
49.805 602.00
49.8702 618.00
49.9354 688.00
50.0006 690.00
50.0658 749.00
50.131 894.00
50.1962 939.00
50.2614 1023.00
50.3266 966.00
50.3918 800.00
50.457 684.00
50.5222 625.00
50.5874 565.00
50.6526 547.00
50.7178 562.00
50.783 600.00
50.8482 574.00
50.9134 618.00
50.9786 548.00
51.0438 485.00
51.109 524.00
51.1742 481.00
51.2394 425.00
51.3046 426.00
51.3698 433.00
51.435 439.00
51.5002 420.00
51.5654 462.00
51.6306 453.00
51.6958 413.00
51.761 438.00
51.8262 487.00
51.8914 440.00
51.9566 425.00
52.0218 425.00
52.087 477.00
52.1522 452.00
52.2174 421.00
52.2826 413.00
52.3477 428.00
52.4129 396.00
52.4781 439.00
52.5433 427.00
52.6085 468.00
52.6737 430.00
52.7389 392.00
52.8041 415.00
52.8693 465.00
52.9345 437.00
52.9997 450.00
53.0649 424.00
53.1301 423.00
53.1953 466.00
53.2605 418.00
53.3257 451.00
53.3909 419.00
53.4561 482.00
53.5213 475.00
53.5865 410.00
53.6517 477.00
53.7169 446.00
53.7821 459.00
53.8473 444.00
53.9125 454.00
53.9777 461.00
54.0429 420.00
54.1081 468.00
54.1733 472.00
54.2385 472.00
54.3037 520.00
54.3689 586.00
54.4341 569.00
54.4993 647.00
54.5645 758.00
54.6297 912.00
54.6949 1385.00
54.7601 3327.00
54.8253 7200.00
54.8905 3436.00
54.9557 3976.00
55.0209 2360.00
55.0861 1109.00
55.1513 889.00
55.2165 875.00
55.2817 807.00
55.3469 940.00
55.4121 1093.00
55.4773 1305.00
55.5425 1447.00
55.6077 1422.00
55.6729 1316.00
55.7381 1142.00
55.8033 877.00
55.8685 724.00
55.9337 663.00
55.9989 569.00
56.0641 596.00
56.1293 559.00
56.1945 605.00
56.2597 618.00
56.3249 625.00
56.3901 717.00
56.4553 842.00
56.5205 859.00
56.5857 929.00
56.6509 876.00
56.7161 806.00
56.7813 723.00
56.8465 663.00
56.9117 558.00
56.9769 559.00
57.042 566.00
57.1073 532.00
57.1724 529.00
57.2376 515.00
57.3028 574.00
57.368 919.00
57.4332 1960.00
57.4984 1785.00
57.5636 1209.00
57.6288 1461.00
57.694 787.00
57.7592 611.00
57.8244 570.00
57.8896 607.00
57.9548 557.00
58.02 594.00
58.0852 666.00
58.1504 689.00
58.2156 666.00
58.2808 604.00
58.346 540.00
58.4112 521.00
58.4764 445.00
58.5416 471.00
58.6068 507.00
58.672 477.00
58.7372 480.00
58.8024 546.00
58.8676 525.00
58.9328 613.00
58.998 679.00
59.0632 729.00
59.1284 758.00
59.1936 700.00
59.2588 715.00
59.324 1049.00
59.3892 1692.00
59.4544 1006.00
59.5196 1005.00
59.5848 900.00
59.65 571.00
59.7152 476.00
59.7804 460.00
59.8456 390.00
59.9108 433.00
59.976 379.00
60.0412 384.00
60.1064 407.00
60.1716 371.00
60.2368 338.00
60.302 387.00
60.3672 377.00
60.4324 393.00
60.4976 352.00
60.5628 389.00
60.628 404.00
60.6932 344.00
60.7584 366.00
60.8236 385.00
60.8888 356.00
60.954 365.00
61.0192 403.00
61.0844 377.00
61.1496 385.00
61.2148 393.00
61.28 369.00
61.3452 389.00
61.4104 355.00
61.4756 360.00
61.5408 386.00
61.606 337.00
61.6712 366.00
61.7364 345.00
61.8016 342.00
61.8667 356.00
61.932 349.00
61.9971 356.00
62.0623 353.00
62.1275 348.00
62.1927 373.00
62.2579 349.00
62.3231 385.00
62.3883 365.00
62.4535 353.00
62.5187 364.00
62.5839 400.00
62.6491 387.00
62.7143 380.00
62.7795 391.00
62.8447 346.00
62.9099 368.00
62.9751 373.00
63.0403 349.00
63.1055 357.00
63.1707 410.00
63.2359 403.00
63.3011 352.00
63.3663 366.00
63.4315 396.00
63.4967 405.00
63.5619 444.00
63.6271 408.00
63.6923 418.00
63.7575 425.00
63.8227 506.00
63.8879 523.00
63.9531 612.00
64.0183 698.00
64.0835 769.00
64.1487 924.00
64.2139 1093.00
64.2791 1438.00
64.3443 1733.00
64.4095 1341.00
64.4747 1090.00
64.5399 1129.00
64.6051 825.00
64.6703 639.00
64.7355 520.00
64.8007 512.00
64.8659 500.00
64.9311 473.00
64.9963 462.00
65.0615 479.00
65.1267 527.00
65.1919 572.00
65.2571 567.00
65.3223 599.00
65.3875 610.00
65.4527 631.00
65.5179 547.00
65.5831 528.00
65.6483 503.00
65.7135 474.00
65.7787 436.00
65.8439 395.00
65.9091 407.00
65.9743 386.00
66.0395 421.00
66.1047 452.00
66.1699 459.00
66.2351 466.00
66.3003 467.00
66.3655 467.00
66.4307 431.00
66.4959 405.00
66.561 405.00
66.6263 384.00
66.6915 342.00
66.7566 375.00
66.8218 378.00
66.887 360.00
66.9522 396.00
67.0174 379.00
67.0826 400.00
67.1478 423.00
67.213 473.00
67.2782 647.00
67.3434 1041.00
67.4086 733.00
67.4738 612.00
67.539 771.00
67.6042 516.00
67.6694 439.00
67.7346 398.00
67.7998 375.00
67.865 344.00
67.9302 346.00
67.9954 366.00
68.0606 311.00
68.1258 335.00
68.191 327.00
68.2562 316.00
68.3214 338.00
68.3866 351.00
68.4518 339.00
68.517 371.00
68.5822 366.00
68.6474 374.00
68.7126 383.00
68.7778 370.00
68.843 397.00
68.9082 404.00
68.9734 435.00
69.0386 573.00
69.1038 1039.00
69.169 768.00
69.2342 564.00
69.2994 815.00
69.3646 600.00
69.4298 446.00
69.495 500.00
69.5602 501.00
69.6254 546.00
69.6906 583.00
69.7558 658.00
69.821 772.00
69.8862 904.00
69.9514 890.00
70.0166 924.00
70.0818 808.00
70.147 791.00
70.2122 717.00
70.2774 596.00
70.3426 519.00
70.4078 474.00
70.473 412.00
70.5382 405.00
70.6034 417.00
70.6686 402.00
70.7338 419.00
70.799 408.00
70.8642 403.00
70.9294 476.00
70.9946 482.00
71.0598 494.00
71.125 510.00
71.1902 555.00
71.2554 527.00
71.3205 501.00
71.3858 454.00
71.451 440.00
71.5162 411.00
71.5813 399.00
71.6465 342.00
71.7117 365.00
71.7769 382.00
71.8421 348.00
71.9073 422.00
71.9725 416.00
72.0377 413.00
72.1029 365.00
72.1681 383.00
72.2333 400.00
72.2985 358.00
72.3637 369.00
72.4289 348.00
72.4941 330.00
72.5593 335.00
72.6245 311.00
72.6897 367.00
72.7549 356.00
72.8201 363.00
72.8853 405.00
72.9505 418.00
73.0157 398.00
73.0809 413.00
73.1461 430.00
73.2113 408.00
73.2765 391.00
73.3417 415.00
73.4069 374.00
73.4721 333.00
73.5373 420.00
73.6025 414.00
73.6677 426.00
73.7329 481.00
73.7981 418.00
73.8633 414.00
73.9285 440.00
73.9937 463.00
74.0589 458.00
74.1241 490.00
74.1893 676.00
74.2545 1382.00
74.3197 2161.00
74.3849 995.00
74.4501 909.00
74.5153 1329.00
74.5805 828.00
74.6457 538.00
74.7109 481.00
74.7761 426.00
74.8413 368.00
74.9065 396.00
74.9717 384.00
75.0369 333.00
75.1021 383.00
75.1673 363.00
75.2325 350.00
75.2977 369.00
75.3629 348.00
75.4281 374.00
75.4933 381.00
75.5585 349.00
75.6237 359.00
75.6889 407.00
75.7541 412.00
75.8193 471.00
75.8845 507.00
75.9497 582.00
76.0149 581.00
76.0801 628.00
76.1452 676.00
76.2104 649.00
76.2756 724.00
76.3409 780.00
76.406 821.00
76.4712 1083.00
76.5364 2051.00
76.6016 1687.00
76.6668 1120.00
76.732 1219.00
76.7972 1423.00
76.8624 926.00
76.9276 750.00
76.9928 691.00
77.058 634.00
77.1232 654.00
77.1884 657.00
77.2536 710.00
77.3188 824.00
77.384 772.00
77.4492 877.00
77.5144 878.00
77.5796 1056.00
77.6448 1030.00
77.71 1105.00
77.7752 1066.00
77.8404 1081.00
77.9056 988.00
77.9708 995.00
78.036 886.00
78.1012 800.00
78.1664 821.00
78.2316 907.00
78.2968 719.00
78.362 585.00
78.4272 651.00
78.4924 669.00
78.5576 557.00
78.6228 581.00
78.688 532.00
78.7532 549.00
78.8184 591.00
78.8836 518.00
78.9488 475.00
79.014 468.00
79.0792 479.00
79.1444 450.00
79.2096 439.00
79.2748 381.00
79.34 338.00
79.4052 335.00
79.4704 364.00
79.5356 359.00
79.6008 357.00
79.666 366.00
79.7312 347.00
79.7964 312.00
79.8616 336.00
79.9268 323.00
79.992 322.00
80.0572 313.00
80.1224 328.00
80.1876 286.00
80.2528 315.00
80.318 324.00
80.3832 346.00
80.4484 305.00
80.5136 291.00
80.5788 333.00
80.644 299.00
80.7092 316.00
80.7744 274.00
80.8396 318.00
80.9048 372.00
80.9699 322.00
81.0351 328.00
81.1003 328.00
81.1655 358.00
81.2307 316.00
81.2959 327.00
81.3611 320.00
81.4263 328.00
81.4915 334.00
81.5567 297.00
81.6219 377.00
81.6871 318.00
81.7523 372.00
81.8175 342.00
81.8827 366.00
81.9479 363.00
82.0131 347.00
82.0783 395.00
82.1435 345.00
82.2087 393.00
82.2739 393.00
82.3391 398.00
82.4043 466.00
82.4695 570.00
82.5347 521.00
82.5999 592.00
82.6651 734.00
82.7303 570.00
82.7955 498.00
82.8607 543.00
82.9259 519.00
82.9911 429.00
83.0563 378.00
83.1215 356.00
83.1867 348.00
83.2519 339.00
83.3171 311.00
83.3823 318.00
83.4475 328.00
83.5127 305.00
83.5779 299.00
83.6431 315.00
83.7083 293.00
83.7735 324.00
83.8387 287.00
83.9039 292.00
83.9691 309.00
84.0343 283.00
84.0995 314.00
84.1647 302.00
84.2299 315.00
84.2951 316.00
84.3603 298.00
84.4255 302.00
84.4907 309.00
84.5559 332.00
84.6211 285.00
84.6863 349.00
84.7515 366.00
84.8167 341.00
84.8819 341.00
84.9471 332.00
85.0123 406.00
85.0775 374.00
85.1427 436.00
85.2079 433.00
85.2731 532.00
85.3383 659.00
85.4035 1168.00
85.4687 943.00
85.5339 590.00
85.5991 568.00
85.6643 803.00
85.7295 635.00
85.7946 466.00
85.8598 388.00
85.925 398.00
85.9903 375.00
86.0554 345.00
86.1206 334.00
86.1858 362.00
86.251 359.00
86.3162 331.00
86.3814 313.00
86.4466 307.00
86.5118 306.00
86.577 332.00
86.6422 303.00
86.7074 310.00
86.7726 341.00
86.8378 313.00
86.903 313.00
86.9682 368.00
87.0334 535.00
87.0986 478.00
87.1638 342.00
87.229 380.00
87.2942 439.00
87.3594 409.00
87.4246 354.00
87.4898 310.00
87.555 323.00
87.6202 328.00
87.6854 291.00
87.7506 333.00
87.8158 307.00
87.881 310.00
87.9462 340.00
88.0114 340.00
88.0766 364.00
88.1418 343.00
88.207 350.00
88.2722 330.00
88.3374 393.00
88.4026 342.00
88.4678 370.00
88.533 406.00
88.5982 428.00
88.6634 459.00
88.7286 498.00
88.7938 542.00
88.859 571.00
88.9242 599.00
88.9894 629.00
89.0546 654.00
89.1198 529.00
89.185 516.00
89.2502 545.00
89.3154 492.00
89.3806 455.00
89.4458 445.00
89.511 418.00
89.5762 377.00
89.6414 414.00
89.7066 399.00
89.7718 408.00
89.837 382.00
89.9022 376.00
89.9674 420.00
90.0326 475.00
90.0978 435.00
90.163 449.00
90.2282 433.00
90.2934 461.00
90.3586 504.00
90.4238 522.00
90.489 519.00
90.5542 551.00
90.6193 505.00
90.6845 445.00
90.7497 467.00
90.8149 474.00
90.8801 451.00
90.9453 470.00
91.0105 406.00
91.0757 440.00
91.1409 452.00
91.2061 464.00
91.2713 513.00
91.3365 657.00
91.4017 998.00
91.4669 884.00
91.5321 587.00
91.5973 590.00
91.6625 676.00
91.7277 869.00
91.7929 681.00
91.8581 703.00
91.9233 996.00
91.9885 1319.00
92.0537 723.00
92.1189 599.00
92.1841 624.00
92.2493 860.00
92.3145 662.00
92.3797 494.00
92.4449 417.00
92.5101 371.00
92.5753 386.00
92.6405 361.00
92.7057 362.00
92.7709 325.00
92.8361 360.00
92.9013 333.00
92.9665 326.00
93.0317 325.00
93.0969 310.00
93.1621 302.00
93.2273 338.00
93.2925 286.00
93.3577 329.00
93.4229 314.00
93.4881 295.00
93.5533 327.00
93.6185 302.00
93.6837 296.00
93.7489 295.00
93.8141 289.00
93.8793 349.00
93.9445 283.00
94.0097 306.00
94.0749 331.00
94.1401 332.00
94.2053 304.00
94.2705 300.00
94.3357 301.00
94.4009 287.00
94.4661 322.00
94.5313 321.00
94.5965 317.00
94.6617 310.00
94.7269 306.00
94.7921 338.00
94.8573 338.00
94.9225 345.00
94.9877 352.00
95.0529 336.00
95.1181 368.00
95.1833 387.00
95.2485 377.00
95.3137 434.00
95.3789 408.00
95.444 415.00
95.5092 460.00
95.5744 491.00
95.6396 611.00
95.7048 603.00
95.77 739.00
95.8352 773.00
95.9004 637.00
95.9656 630.00
96.0308 581.00
96.096 607.00
96.1612 625.00
96.2264 559.00
96.2916 510.00
96.3568 516.00
96.422 477.00
96.4872 414.00
96.5524 427.00
96.6176 461.00
96.6828 477.00
96.748 455.00
96.8132 514.00
96.8784 497.00
96.9436 524.00
97.0088 540.00
97.074 511.00
97.1392 491.00
97.2044 517.00
97.2696 482.00
97.3348 434.00
97.4 422.00
97.4652 426.00
97.5304 387.00
97.5956 374.00
97.6608 368.00
97.726 343.00
97.7912 349.00
97.8564 285.00
97.9216 371.00
97.9868 334.00
98.052 310.00
98.1172 334.00
98.1824 344.00
98.2476 320.00
98.3128 321.00
98.378 333.00
98.4432 299.00
98.5084 356.00
98.5736 328.00
98.6388 303.00
98.704 312.00
98.7692 318.00
98.8344 299.00
98.8996 306.00
98.9648 294.00
99.03 298.00
99.0952 311.00
99.1604 309.00
99.2256 290.00
99.2908 284.00
99.356 292.00
99.4212 331.00
99.4864 334.00
99.5516 323.00
99.6168 303.00
99.682 265.00
99.7472 292.00
99.8124 328.00
99.8776 321.00
99.9428 312.00
100.008 312.00
100.073 334.00
100.095 357.00