File: data/xrd_creation/results/PG_2139-1.xy
9.903433 2754.00
9.968632 2711.00
10.0338 2768.00
10.099 2770.00
10.1642 2606.00
10.2294 2597.00
10.2946 2666.00
10.3598 2617.00
10.425 2574.00
10.4902 2633.00
10.5554 2623.00
10.6206 2626.00
10.6858 2680.00
10.751 2611.00
10.8162 2560.00
10.8814 2491.00
10.9466 2545.00
11.0118 2451.00
11.077 2495.00
11.1422 2553.00
11.2074 2426.00
11.2726 2457.00
11.3378 2428.00
11.403 2370.00
11.4682 2421.00
11.5334 2381.00
11.5986 2311.00
11.6638 2389.00
11.729 2317.00
11.7942 2285.00
11.8594 2226.00
11.9246 2339.00
11.9898 2243.00
12.055 2240.00
12.1202 2249.00
12.1854 2319.00
12.2506 2241.00
12.3158 2290.00
12.381 2220.00
12.4462 2181.00
12.5114 2218.00
12.5766 2209.00
12.6418 2120.00
12.707 2196.00
12.7722 2227.00
12.8374 2127.00
12.9026 2106.00
12.9678 2129.00
13.033 2191.00
13.0982 2061.00
13.1634 2165.00
13.2286 2149.00
13.2938 2076.00
13.359 2056.00
13.4242 2038.00
13.4894 2036.00
13.5546 2078.00
13.6198 2086.00
13.685 2065.00
13.7502 1977.00
13.8154 2004.00
13.8805 2092.00
13.9457 2088.00
14.0109 2043.00
14.0761 2098.00
14.1413 2067.00
14.2065 2016.00
14.2717 2014.00
14.3369 1980.00
14.4021 1976.00
14.4673 2056.00
14.5325 2015.00
14.5977 2019.00
14.6629 2016.00
14.7281 2069.00
14.7933 1974.00
14.8585 2000.00
14.9237 2002.00
14.9889 2029.00
15.0541 1968.00
15.1193 2062.00
15.1845 2017.00
15.2497 2068.00
15.3149 2005.00
15.3801 2147.00
15.4453 2172.00
15.5105 2303.00
15.5757 2425.00
15.6409 2675.00
15.7061 3106.00
15.7713 3702.00
15.8365 4579.00
15.9017 6252.00
15.9669 8506.00
16.0321 10215.00
16.0973 8895.00
16.1625 5877.00
16.2277 3900.00
16.2929 3008.00
16.3581 2542.00
16.4233 2494.00
16.4885 2293.00
16.5537 2163.00
16.6189 2112.00
16.6841 2000.00
16.7493 2014.00
16.8145 2062.00
16.8797 1962.00
16.9449 1983.00
17.0101 1933.00
17.0753 1986.00
17.1405 1961.00
17.2057 1900.00
17.2709 1923.00
17.3361 1864.00
17.4013 1885.00
17.4665 1880.00
17.5317 1905.00
17.5969 1797.00
17.6621 1813.00
17.7273 1806.00
17.7925 1783.00
17.8577 1822.00
17.9229 1819.00
17.9881 1779.00
18.0533 1875.00
18.1185 1834.00
18.1837 1814.00
18.2489 1839.00
18.3141 1767.00
18.3793 1732.00
18.4445 1708.00
18.5097 1741.00
18.5749 1674.00
18.6401 1736.00
18.7052 1771.00
18.7704 1770.00
18.8356 1759.00
18.9008 1721.00
18.966 1710.00
19.0312 1768.00
19.0964 1750.00
19.1616 1748.00
19.2268 1714.00
19.292 1707.00
19.3572 1666.00
19.4224 1643.00
19.4876 1674.00
19.5528 1666.00
19.618 1727.00
19.6832 1650.00
19.7484 1706.00
19.8136 1651.00
19.8788 1664.00
19.944 1589.00
20.0092 1576.00
20.0744 1712.00
20.1396 1673.00
20.2048 1631.00
20.27 1586.00
20.3352 1725.00
20.4004 1643.00
20.4656 1645.00
20.5308 1628.00
20.596 1666.00
20.6612 1617.00
20.7264 1620.00
20.7916 1675.00
20.8568 1612.00
20.922 1688.00
20.9872 1649.00
21.0524 1635.00
21.1176 1616.00
21.1828 1577.00
21.248 1595.00
21.3132 1561.00
21.3784 1551.00
21.4436 1639.00
21.5088 1638.00
21.574 1566.00
21.6392 1564.00
21.7044 1550.00
21.7696 1407.00
21.8348 1541.00
21.9 1513.00
21.9652 1568.00
22.0304 1580.00
22.0956 1507.00
22.1608 1517.00
22.226 1557.00
22.2912 1492.00
22.3564 1553.00
22.4216 1528.00
22.4868 1518.00
22.552 1590.00
22.6172 1521.00
22.6824 1476.00
22.7476 1580.00
22.8128 1557.00
22.878 1493.00
22.9432 1513.00
23.0084 1542.00
23.0736 1477.00
23.1388 1551.00
23.204 1488.00
23.2692 1544.00
23.3344 1550.00
23.3996 1467.00
23.4647 1516.00
23.5299 1492.00
23.5951 1493.00
23.6603 1457.00
23.7255 1520.00
23.7907 1468.00
23.8559 1457.00
23.9211 1427.00
23.9863 1473.00
24.0515 1499.00
24.1167 1565.00
24.1819 1475.00
24.2471 1503.00
24.3123 1445.00
24.3775 1460.00
24.4427 1532.00
24.5079 1546.00
24.5731 1436.00
24.6383 1467.00
24.7035 1530.00
24.7687 1450.00
24.8339 1401.00
24.8991 1455.00
24.9643 1451.00
25.0295 1473.00
25.0947 1435.00
25.1599 1478.00
25.2251 1523.00
25.2903 1425.00
25.3555 1441.00
25.4207 1470.00
25.4859 1437.00
25.5511 1480.00
25.6163 1458.00
25.6815 1531.00
25.7467 1409.00
25.8119 1474.00
25.8771 1442.00
25.9423 1452.00
26.0075 1465.00
26.0727 1455.00
26.1379 1496.00
26.2031 1449.00
26.2683 1471.00
26.3335 1487.00
26.3987 1453.00
26.4639 1486.00
26.5291 1432.00
26.5943 1485.00
26.6595 1460.00
26.7247 1435.00
26.7899 1520.00
26.8551 1544.00
26.9203 1526.00
26.9855 1588.00
27.0507 1585.00
27.1159 1676.00
27.1811 1787.00
27.2463 1888.00
27.3115 2160.00
27.3767 2616.00
27.4419 3278.00
27.5071 4728.00
27.5723 6492.00
27.6375 8518.00
27.7027 8712.00
27.7679 6584.00
27.8331 4632.00
27.8983 3486.00
27.9635 2999.00
28.0287 2999.00
28.0939 3480.00
28.1591 4391.00
28.2243 6370.00
28.2894 9236.00
28.3546 11352.00
28.4198 10637.00
28.485 7427.00
28.5502 4637.00
28.6154 3176.00
28.6806 2517.00
28.7458 2157.00
28.811 1953.00
28.8762 1788.00
28.9414 1655.00
29.0066 1597.00
29.0718 1584.00
29.137 1526.00
29.2022 1409.00
29.2674 1573.00
29.3326 1477.00
29.3978 1457.00
29.463 1507.00
29.5282 1333.00
29.5934 1474.00
29.6586 1426.00
29.7238 1492.00
29.789 1432.00
29.8542 1374.00
29.9194 1335.00
29.9846 1355.00
30.0498 1381.00
30.115 1419.00
30.1802 1380.00
30.2454 1471.00
30.3106 1358.00
30.3758 1369.00
30.441 1429.00
30.5062 1367.00
30.5714 1362.00
30.6366 1442.00
30.7018 1356.00
30.767 1369.00
30.8322 1301.00
30.8974 1333.00
30.9626 1344.00
31.0278 1325.00
31.093 1414.00
31.1582 1375.00
31.2234 1407.00
31.2886 1378.00
31.3538 1363.00
31.419 1392.00
31.4842 1343.00
31.5494 1456.00
31.6146 1527.00
31.6798 1654.00
31.745 1691.00
31.8102 2002.00
31.8754 2435.00
31.9406 2927.00
32.0058 3180.00
32.071 2723.00
32.1362 2239.00
32.2014 1831.00
32.2666 1635.00
32.3318 1465.00
32.397 1431.00
32.4622 1356.00
32.5274 1370.00
32.5926 1236.00
32.6578 1334.00
32.723 1263.00
32.7882 1294.00
32.8534 1285.00
32.9186 1274.00
32.9838 1263.00
33.0489 1304.00
33.1141 1303.00
33.1793 1302.00
33.2445 1270.00
33.3097 1268.00
33.3749 1288.00
33.4401 1251.00
33.5053 1193.00
33.5705 1244.00
33.6357 1257.00
33.7009 1251.00
33.7661 1297.00
33.8313 1243.00
33.8965 1237.00
33.9617 1293.00
34.0269 1243.00
34.0921 1323.00
34.1573 1271.00
34.2225 1218.00
34.2877 1259.00
34.3529 1232.00
34.4181 1243.00
34.4833 1229.00
34.5485 1248.00
34.6137 1222.00
34.6789 1278.00
34.7441 1222.00
34.8093 1224.00
34.8745 1222.00
34.9397 1222.00
35.0049 1262.00
35.0701 1212.00
35.1353 1196.00
35.2005 1179.00
35.2657 1213.00
35.3309 1254.00
35.3961 1153.00
35.4613 1242.00
35.5265 1259.00
35.5917 1221.00
35.6569 1193.00
35.7221 1211.00
35.7873 1185.00
35.8525 1287.00
35.9177 1229.00
35.9829 1270.00
36.0481 1270.00
36.1133 1367.00
36.1785 1476.00
36.2437 1575.00
36.3089 1723.00
36.3741 1790.00
36.4393 1834.00
36.5045 1662.00
36.5697 1547.00
36.6349 1395.00
36.7001 1291.00
36.7653 1209.00
36.8305 1262.00
36.8957 1230.00
36.9609 1227.00
37.0261 1253.00
37.0913 1266.00
37.1565 1305.00
37.2217 1302.00
37.2869 1354.00
37.3521 1393.00
37.4173 1514.00
37.4825 1933.00
37.5477 2566.00
37.6129 3501.00
37.6781 3290.00
37.7433 2850.00
37.8085 2018.00
37.8736 1571.00
37.9388 1421.00
38.004 1295.00
38.0692 1271.00
38.1344 1260.00
38.1996 1241.00
38.2648 1247.00
38.33 1209.00
38.3952 1300.00
38.4604 1284.00
38.5256 1206.00
38.5908 1172.00
38.656 1248.00
38.7212 1258.00
38.7864 1233.00
38.8516 1284.00
38.9168 1331.00
38.982 1277.00
39.0472 1338.00
39.1124 1379.00
39.1776 1433.00
39.2428 1380.00
39.308 1557.00
39.3732 1665.00
39.4384 1783.00
39.5036 2016.00
39.5688 2485.00
39.634 3184.00
39.6992 4522.00
39.7644 6203.00
39.8296 7695.00
39.8948 7844.00
39.96 6460.00
40.0252 4940.00
40.0904 3374.00
40.1556 2582.00
40.2208 2098.00
40.286 1816.00
40.3512 1586.00
40.4164 1484.00
40.4816 1339.00
40.5468 1300.00
40.612 1301.00
40.6772 1289.00
40.7424 1298.00
40.8076 1233.00
40.8728 1253.00
40.938 1216.00
41.0032 1217.00
41.0684 1182.00
41.1336 1241.00
41.1988 1197.00
41.264 1205.00
41.3292 1174.00
41.3944 1201.00
41.4596 1248.00
41.5248 1235.00
41.59 1191.00
41.6552 1158.00
41.7204 1161.00
41.7856 1222.00
41.8508 1263.00
41.916 1192.00
41.9812 1260.00
42.0464 1183.00
42.1116 1190.00
42.1768 1254.00
42.242 1404.00
42.3072 1481.00
42.3724 1606.00
42.4376 1764.00
42.5028 2065.00
42.568 2322.00
42.6332 2354.00
42.6983 2209.00
42.7635 1963.00
42.8287 1635.00
42.8939 1497.00
42.9591 1357.00
43.0243 1317.00
43.0895 1313.00
43.1547 1309.00
43.2199 1286.00
43.2851 1359.00
43.3503 1433.00
43.4155 1628.00
43.4807 1923.00
43.5459 2463.00
43.6111 4223.00
43.6763 5794.00
43.7415 4536.00
43.8067 3527.00
43.8719 2136.00
43.9371 1636.00
44.0023 1459.00
44.0675 1377.00
44.1327 1280.00
44.1979 1320.00
44.2631 1186.00
44.3283 1210.00
44.3935 1201.00
44.4587 1212.00
44.5239 1136.00
44.5891 1192.00
44.6543 1184.00
44.7195 1100.00
44.7847 1093.00
44.8499 1180.00
44.9151 1130.00
44.9803 1197.00
45.0455 1157.00
45.1107 1146.00
45.1759 1154.00
45.2411 1144.00
45.3063 1152.00
45.3715 1119.00
45.4367 1076.00
45.5019 1146.00
45.5671 1118.00
45.6323 1102.00
45.6975 1185.00
45.7627 1180.00
45.8279 1161.00
45.8931 1157.00
45.9583 1089.00
46.0235 1142.00
46.0887 1127.00
46.1539 1178.00
46.2191 1145.00
46.2843 1141.00
46.3495 1115.00
46.4147 1171.00
46.4799 1120.00
46.5451 1195.00
46.6103 1106.00
46.6755 1166.00
46.7407 1161.00
46.8059 1149.00
46.8711 1179.00
46.9363 1234.00
47.0015 1193.00
47.0667 1273.00
47.1319 1355.00
47.1971 1361.00
47.2623 1555.00
47.3275 1676.00
47.3927 2122.00
47.4579 2394.00
47.523 2283.00
47.5882 2126.00
47.6534 1760.00
47.7186 1606.00
47.7838 1483.00
47.849 1348.00
47.9142 1401.00
47.9794 1373.00
48.0446 1412.00
48.1098 1451.00
48.175 1618.00
48.2402 1690.00
48.3054 1882.00
48.3706 2275.00
48.4358 2587.00
48.501 3370.00
48.5662 3885.00
48.6314 3971.00
48.6966 3951.00
48.7618 4055.00
48.827 4379.00
48.8922 5325.00
48.9574 6188.00
49.0226 6745.00
49.0878 6064.00
49.153 5136.00
49.2182 4048.00
49.2834 2993.00
49.3486 2473.00
49.4138 2064.00
49.479 1841.00
49.5442 1639.00
49.6094 1501.00
49.6746 1457.00
49.7398 1421.00
49.805 1334.00
49.8702 1290.00
49.9354 1415.00
50.0006 1428.00
50.0658 1375.00
50.131 1535.00
50.1962 1695.00
50.2614 1987.00
50.3266 1896.00
50.3918 1834.00
50.457 1668.00
50.5222 1476.00
50.5874 1402.00
50.6526 1333.00
50.7178 1190.00
50.783 1168.00
50.8482 1207.00
50.9134 1167.00
50.9786 1184.00
51.0438 1211.00
51.109 1157.00
51.1742 1129.00
51.2394 1177.00
51.3046 1150.00
51.3698 1170.00
51.435 1107.00
51.5002 1091.00
51.5654 1115.00
51.6306 1136.00
51.6958 1085.00
51.761 1048.00
51.8262 1107.00
51.8914 1097.00
51.9566 1036.00
52.0218 1039.00
52.087 1068.00
52.1522 1063.00
52.2174 1102.00
52.2826 1071.00
52.3477 1090.00
52.4129 1068.00
52.4781 1080.00
52.5433 1082.00
52.6085 1117.00
52.6737 1113.00
52.7389 1097.00
52.8041 1042.00
52.8693 1057.00
52.9345 1113.00
52.9997 1143.00
53.0649 1054.00
53.1301 1058.00
53.1953 1090.00
53.2605 1144.00
53.3257 1102.00
53.3909 1033.00
53.4561 1054.00
53.5213 1062.00
53.5865 1089.00
53.6517 1098.00
53.7169 1097.00
53.7821 1079.00
53.8473 1061.00
53.9125 993.00
53.9777 1105.00
54.0429 1069.00
54.1081 1096.00
54.1733 1006.00
54.2385 1111.00
54.3037 1086.00
54.3689 1061.00
54.4341 1034.00
54.4993 1131.00
54.5645 1038.00
54.6297 1009.00
54.6949 1128.00
54.7601 1056.00
54.8253 1151.00
54.8905 1205.00
54.9557 1051.00
55.0209 1139.00
55.0861 1133.00
55.1513 1188.00
55.2165 1278.00
55.2817 1325.00
55.3469 1383.00
55.4121 1488.00
55.4773 1815.00
55.5425 2178.00
55.6077 2525.00
55.6729 2592.00
55.7381 2445.00
55.8033 2075.00
55.8685 1846.00
55.9337 1565.00
55.9989 1482.00
56.0641 1330.00
56.1293 1216.00
56.1945 1276.00
56.2597 1237.00
56.3249 1407.00
56.3901 1432.00
56.4553 1514.00
56.5205 1663.00
56.5857 1729.00
56.6509 1866.00
56.7161 1727.00
56.7813 1645.00
56.8465 1536.00
56.9117 1406.00
56.9769 1268.00
57.042 1213.00
57.1073 1166.00
57.1724 1119.00
57.2376 1131.00
57.3028 1094.00
57.368 1068.00
57.4332 1066.00
57.4984 1128.00
57.5636 1040.00
57.6288 1049.00
57.694 1148.00
57.7592 1123.00
57.8244 1078.00
57.8896 1224.00
57.9548 1186.00
58.02 1253.00
58.0852 1404.00
58.1504 1433.00
58.2156 1476.00
58.2808 1413.00
58.346 1329.00
58.4112 1368.00
58.4764 1241.00
58.5416 1210.00
58.6068 1127.00
58.672 1148.00
58.7372 1188.00
58.8024 1167.00
58.8676 1246.00
58.9328 1234.00
58.998 1325.00
59.0632 1454.00
59.1284 1466.00
59.1936 1443.00
59.2588 1355.00
59.324 1307.00
59.3892 1259.00
59.4544 1180.00
59.5196 1205.00
59.5848 1129.00
59.65 1059.00
59.7152 1075.00
59.7804 1057.00
59.8456 1044.00
59.9108 1119.00
59.976 1081.00
60.0412 1084.00
60.1064 1140.00
60.1716 1039.00
60.2368 1048.00
60.302 1046.00
60.3672 1027.00
60.4324 989.00
60.4976 1000.00
60.5628 967.00
60.628 1003.00
60.6932 1042.00
60.7584 1027.00
60.8236 1060.00
60.8888 1050.00
60.954 970.00
61.0192 1006.00
61.0844 1013.00
61.1496 1045.00
61.2148 1068.00
61.28 1098.00
61.3452 1008.00
61.4104 992.00
61.4756 1062.00
61.5408 1069.00
61.606 991.00
61.6712 1070.00
61.7364 968.00
61.8016 978.00
61.8667 1053.00
61.932 1059.00
61.9971 1058.00
62.0623 1047.00
62.1275 1057.00
62.1927 1061.00
62.2579 1038.00
62.3231 1044.00
62.3883 1078.00
62.4535 1027.00
62.5187 1068.00
62.5839 1110.00
62.6491 1109.00
62.7143 1119.00
62.7795 1094.00
62.8447 1140.00
62.9099 1278.00
62.9751 1306.00
63.0403 1490.00
63.1055 1821.00
63.1707 2239.00
63.2359 2407.00
63.3011 2306.00
63.3663 2034.00
63.4315 1985.00
63.4967 1710.00
63.5619 1460.00
63.6271 1348.00
63.6923 1302.00
63.7575 1234.00
63.8227 1246.00
63.8879 1224.00
63.9531 1326.00
64.0183 1396.00
64.0835 1464.00
64.1487 1676.00
64.2139 1854.00
64.2791 2136.00
64.3443 2181.00
64.4095 2221.00
64.4747 2039.00
64.5399 1969.00
64.6051 1766.00
64.6703 1564.00
64.7355 1399.00
64.8007 1329.00
64.8659 1202.00
64.9311 1225.00
64.9963 1210.00
65.0615 1157.00
65.1267 1173.00
65.1919 1190.00
65.2571 1272.00
65.3223 1431.00
65.3875 1520.00
65.4527 1480.00
65.5179 1436.00
65.5831 1456.00
65.6483 1410.00
65.7135 1325.00
65.7787 1191.00
65.8439 1132.00
65.9091 1152.00
65.9743 1160.00
66.0395 1133.00
66.1047 1161.00
66.1699 1156.00
66.2351 1175.00
66.3003 1164.00
66.3655 1219.00
66.4307 1210.00
66.4959 1239.00
66.561 1055.00
66.6263 1113.00
66.6915 1144.00
66.7566 1058.00
66.8218 1018.00
66.887 1010.00
66.9522 1089.00
67.0174 960.00
67.0826 1007.00
67.1478 1051.00
67.213 957.00
67.2782 1005.00
67.3434 1036.00
67.4086 1044.00
67.4738 1041.00
67.539 1045.00
67.6042 1003.00
67.6694 1015.00
67.7346 1112.00
67.7998 1005.00
67.865 1026.00
67.9302 956.00
67.9954 1058.00
68.0606 971.00
68.1258 1018.00
68.191 995.00
68.2562 1052.00
68.3214 988.00
68.3866 980.00
68.4518 1005.00
68.517 1025.00
68.5822 1015.00
68.6474 1042.00
68.7126 1025.00
68.7778 943.00
68.843 997.00
68.9082 967.00
68.9734 1073.00
69.0386 1017.00
69.1038 1087.00
69.169 1011.00
69.2342 1047.00
69.2994 1089.00
69.3646 1065.00
69.4298 1074.00
69.495 1107.00
69.5602 1180.00
69.6254 1223.00
69.6906 1282.00
69.7558 1295.00
69.821 1481.00
69.8862 1652.00
69.9514 1841.00
70.0166 1917.00
70.0818 1911.00
70.147 1777.00
70.2122 1684.00
70.2774 1585.00
70.3426 1481.00
70.4078 1346.00
70.473 1355.00
70.5382 1189.00
70.6034 1146.00
70.6686 1166.00
70.7338 1177.00
70.799 1113.00
70.8642 1203.00
70.9294 1179.00
70.9946 1144.00
71.0598 1227.00
71.125 1282.00
71.1902 1328.00
71.2554 1327.00
71.3205 1412.00
71.3858 1263.00
71.451 1155.00
71.5162 1217.00
71.5813 1093.00
71.6465 1122.00
71.7117 1063.00
71.7769 1123.00
71.8421 1050.00
71.9073 1029.00
71.9725 988.00
72.0377 1049.00
72.1029 1012.00
72.1681 1011.00
72.2333 994.00
72.2985 989.00
72.3637 1042.00
72.4289 996.00
72.4941 1026.00
72.5593 1012.00
72.6245 1065.00
72.6897 1014.00
72.7549 1057.00
72.8201 1084.00
72.8853 1097.00
72.9505 1099.00
73.0157 1152.00
73.0809 1163.00
73.1461 1122.00
73.2113 1124.00
73.2765 1095.00
73.3417 1123.00
73.4069 1112.00
73.4721 1058.00
73.5373 1069.00
73.6025 1063.00
73.6677 1068.00
73.7329 1067.00
73.7981 1032.00
73.8633 1012.00
73.9285 1048.00
73.9937 1031.00
74.0589 974.00
74.1241 987.00
74.1893 1045.00
74.2545 978.00
74.3197 1007.00
74.3849 987.00
74.4501 1073.00
74.5153 1029.00
74.5805 997.00
74.6457 983.00
74.7109 998.00
74.7761 1063.00
74.8413 1049.00
74.9065 1008.00
74.9717 988.00
75.0369 1079.00
75.1021 1016.00
75.1673 1076.00
75.2325 1093.00
75.2977 1053.00
75.3629 1101.00
75.4281 1156.00
75.4933 1127.00
75.5585 1226.00
75.6237 1371.00
75.6889 1595.00
75.7541 1597.00
75.8193 1559.00
75.8845 1605.00
75.9497 1526.00
76.0149 1516.00
76.0801 1545.00
76.1452 1664.00
76.2104 1511.00
76.2756 1505.00
76.3409 1467.00
76.406 1496.00
76.4712 1516.00
76.5364 1508.00
76.6016 1582.00
76.6668 1603.00
76.732 1543.00
76.7972 1553.00
76.8624 1484.00
76.9276 1471.00
76.9928 1464.00
77.058 1404.00
77.1232 1395.00
77.1884 1400.00
77.2536 1526.00
77.3188 1538.00
77.384 1686.00
77.4492 1666.00
77.5144 1887.00
77.5796 2010.00
77.6448 2051.00
77.71 2178.00
77.7752 2233.00
77.8404 2231.00
77.9056 2140.00
77.9708 2100.00
78.036 1839.00
78.1012 1822.00
78.1664 1665.00
78.2316 1497.00
78.2968 1420.00
78.362 1384.00
78.4272 1320.00
78.4924 1294.00
78.5576 1256.00
78.6228 1302.00
78.688 1227.00
78.7532 1280.00
78.8184 1384.00
78.8836 1304.00
78.9488 1230.00
79.014 1253.00
79.0792 1287.00
79.1444 1213.00
79.2096 1159.00
79.2748 1145.00
79.34 1151.00
79.4052 1177.00
79.4704 1155.00
79.5356 1213.00
79.6008 1266.00
79.666 1337.00
79.7312 1302.00
79.7964 1279.00
79.8616 1274.00
79.9268 1315.00
79.992 1161.00
80.0572 1199.00
80.1224 1131.00
80.1876 1091.00
80.2528 1024.00
80.318 1049.00
80.3832 1033.00
80.4484 1063.00
80.5136 1006.00
80.5788 1040.00
80.644 1027.00
80.7092 1077.00
80.7744 1023.00
80.8396 1037.00
80.9048 941.00
80.9699 1021.00
81.0351 999.00
81.1003 1005.00
81.1655 956.00
81.2307 1005.00
81.2959 1022.00
81.3611 1047.00
81.4263 967.00
81.4915 1062.00
81.5567 974.00
81.6219 1010.00
81.6871 1003.00
81.7523 1113.00
81.8175 1022.00
81.8827 1009.00
81.9479 1075.00
82.0131 1054.00
82.0783 1040.00
82.1435 1061.00
82.2087 1058.00
82.2739 1084.00
82.3391 1150.00
82.4043 1139.00
82.4695 1284.00
82.5347 1288.00
82.5999 1374.00
82.6651 1343.00
82.7303 1355.00
82.7955 1259.00
82.8607 1251.00
82.9259 1271.00
82.9911 1197.00
83.0563 1160.00
83.1215 1107.00
83.1867 1046.00
83.2519 1023.00
83.3171 1027.00
83.3823 1014.00
83.4475 1058.00
83.5127 1011.00
83.5779 1010.00
83.6431 1030.00
83.7083 962.00
83.7735 1046.00
83.8387 989.00
83.9039 994.00
83.9691 951.00
84.0343 1048.00
84.0995 1005.00
84.1647 994.00
84.2299 1012.00
84.2951 1032.00
84.3603 1022.00
84.4255 966.00
84.4907 956.00
84.5559 968.00
84.6211 1036.00
84.6863 1008.00
84.7515 1001.00
84.8167 1018.00
84.8819 1004.00
84.9471 1037.00
85.0123 1078.00
85.0775 1107.00
85.1427 1028.00
85.2079 1126.00
85.2731 1145.00
85.3383 1085.00
85.4035 1108.00
85.4687 1071.00
85.5339 1098.00
85.5991 1063.00
85.6643 1041.00
85.7295 1015.00
85.7946 1045.00
85.8598 1084.00
85.925 1063.00
85.9903 1042.00
86.0554 1029.00
86.1206 1092.00
86.1858 1042.00
86.251 997.00
86.3162 1009.00
86.3814 988.00
86.4466 1031.00
86.5118 1091.00
86.577 990.00
86.6422 1010.00
86.7074 994.00
86.7726 1009.00
86.8378 973.00
86.903 1023.00
86.9682 1023.00
87.0334 967.00
87.0986 1015.00
87.1638 1021.00
87.229 1044.00
87.2942 1044.00
87.3594 1056.00
87.4246 997.00
87.4898 984.00
87.555 987.00
87.6202 966.00
87.6854 1002.00
87.7506 965.00
87.8158 1002.00
87.881 1014.00
87.9462 1011.00
88.0114 1029.00
88.0766 1029.00
88.1418 978.00
88.207 1053.00
88.2722 1055.00
88.3374 1080.00
88.4026 1064.00
88.4678 1151.00
88.533 1083.00
88.5982 1132.00
88.6634 1134.00
88.7286 1215.00
88.7938 1288.00
88.859 1336.00
88.9242 1483.00
88.9894 1493.00
89.0546 1480.00
89.1198 1462.00
89.185 1417.00
89.2502 1380.00
89.3154 1303.00
89.3806 1355.00
89.4458 1212.00
89.511 1222.00
89.5762 1126.00
89.6414 1161.00
89.7066 1157.00
89.7718 1144.00
89.837 1131.00
89.9022 1075.00
89.9674 1072.00
90.0326 1198.00
90.0978 1152.00
90.163 1154.00
90.2282 1229.00
90.2934 1249.00
90.3586 1229.00
90.4238 1255.00
90.489 1267.00
90.5542 1202.00
90.6193 1299.00
90.6845 1334.00
90.7497 1281.00
90.8149 1291.00
90.8801 1186.00
90.9453 1198.00
91.0105 1147.00
91.0757 1154.00
91.1409 1122.00
91.2061 1160.00
91.2713 1136.00
91.3365 1108.00
91.4017 1127.00
91.4669 1125.00
91.5321 1166.00
91.5973 1194.00
91.6625 1151.00
91.7277 1119.00
91.7929 1108.00
91.8581 1178.00
91.9233 1068.00
91.9885 1077.00
92.0537 1146.00
92.1189 1088.00
92.1841 1090.00
92.2493 1095.00
92.3145 1097.00
92.3797 1116.00
92.4449 1040.00
92.5101 1035.00
92.5753 1023.00
92.6405 1006.00
92.7057 1039.00
92.7709 1051.00
92.8361 1083.00
92.9013 1056.00
92.9665 1047.00
93.0317 991.00
93.0969 1034.00
93.1621 1030.00
93.2273 1007.00
93.2925 1030.00
93.3577 1017.00
93.4229 963.00
93.4881 1020.00
93.5533 1047.00
93.6185 1055.00
93.6837 1015.00
93.7489 1000.00
93.8141 982.00
93.8793 991.00
93.9445 979.00
94.0097 1015.00
94.0749 960.00
94.1401 991.00
94.2053 1049.00
94.2705 955.00
94.3357 1006.00
94.4009 1015.00
94.4661 1039.00
94.5313 1084.00
94.5965 1056.00
94.6617 1072.00
94.7269 1014.00
94.7921 992.00
94.8573 1021.00
94.9225 1018.00
94.9877 1070.00
95.0529 1104.00
95.1181 1210.00
95.1833 1220.00
95.2485 1192.00
95.3137 1281.00
95.3789 1301.00
95.444 1289.00
95.5092 1301.00
95.5744 1340.00
95.6396 1415.00
95.7048 1474.00
95.77 1435.00
95.8352 1418.00
95.9004 1498.00
95.9656 1442.00
96.0308 1434.00
96.096 1437.00
96.1612 1377.00
96.2264 1364.00
96.2916 1375.00
96.3568 1349.00
96.422 1254.00
96.4872 1228.00
96.5524 1198.00
96.6176 1259.00
96.6828 1265.00
96.748 1249.00
96.8132 1281.00
96.8784 1271.00
96.9436 1362.00
97.0088 1340.00
97.074 1221.00
97.1392 1409.00
97.2044 1282.00
97.2696 1309.00
97.3348 1276.00
97.4 1238.00
97.4652 1207.00
97.5304 1167.00
97.5956 1126.00
97.6608 1088.00
97.726 1104.00
97.7912 1022.00
97.8564 1097.00
97.9216 1045.00
97.9868 1045.00
98.052 1075.00
98.1172 1046.00
98.1824 1087.00
98.2476 1069.00
98.3128 1051.00
98.378 1007.00
98.4432 1003.00
98.5084 1001.00
98.5736 1121.00
98.6388 1067.00
98.704 1018.00
98.7692 1086.00
98.8344 1003.00
98.8996 1028.00
98.9648 1036.00
99.03 1054.00
99.0952 1085.00
99.1604 1052.00
99.2256 1058.00
99.2908 1056.00
99.356 1053.00
99.4212 1016.00
99.4864 1011.00
99.5516 1058.00
99.6168 1026.00
99.682 972.00
99.7472 958.00
99.8124 1004.00
99.8776 1013.00
99.9428 1005.00
100.008 961.00
100.073 1040.00
100.095 954.00