File: data/xrd_creation/results/PG_2039-1.xy
9.903433 3797.00
9.968632 3750.00
10.0338 3766.00
10.099 3654.00
10.1642 3759.00
10.2294 3547.00
10.2946 3738.00
10.3598 3662.00
10.425 3567.00
10.4902 3683.00
10.5554 3568.00
10.6206 3631.00
10.6858 3656.00
10.751 3512.00
10.8162 3561.00
10.8814 3622.00
10.9466 3568.00
11.0118 3625.00
11.077 3602.00
11.1422 3474.00
11.2074 3404.00
11.2726 3610.00
11.3378 3573.00
11.403 3519.00
11.4682 3497.00
11.5334 3489.00
11.5986 3483.00
11.6638 3636.00
11.729 3545.00
11.7942 3526.00
11.8594 3382.00
11.9246 3432.00
11.9898 3439.00
12.055 3486.00
12.1202 3569.00
12.1854 3406.00
12.2506 3481.00
12.3158 3376.00
12.381 3460.00
12.4462 3453.00
12.5114 3372.00
12.5766 3475.00
12.6418 3344.00
12.707 3371.00
12.7722 3355.00
12.8374 3343.00
12.9026 3385.00
12.9678 3359.00
13.033 3359.00
13.0982 3375.00
13.1634 3316.00
13.2286 3344.00
13.2938 3364.00
13.359 3362.00
13.4242 3298.00
13.4894 3279.00
13.5546 3348.00
13.6198 3286.00
13.685 3350.00
13.7502 3215.00
13.8154 3212.00
13.8805 3366.00
13.9457 3316.00
14.0109 3320.00
14.0761 3349.00
14.1413 3416.00
14.2065 3349.00
14.2717 3359.00
14.3369 3269.00
14.4021 3368.00
14.4673 3381.00
14.5325 3328.00
14.5977 3390.00
14.6629 3319.00
14.7281 3314.00
14.7933 3341.00
14.8585 3365.00
14.9237 3208.00
14.9889 3279.00
15.0541 3372.00
15.1193 3265.00
15.1845 3334.00
15.2497 3277.00
15.3149 3265.00
15.3801 3343.00
15.4453 3227.00
15.5105 3392.00
15.5757 3222.00
15.6409 3286.00
15.7061 3277.00
15.7713 3346.00
15.8365 3215.00
15.9017 3286.00
15.9669 3410.00
16.0321 3331.00
16.0973 3268.00
16.1625 3278.00
16.2277 3304.00
16.2929 3259.00
16.3581 3287.00
16.4233 3308.00
16.4885 3289.00
16.5537 3392.00
16.6189 3395.00
16.6841 3246.00
16.7493 3357.00
16.8145 3355.00
16.8797 3355.00
16.9449 3340.00
17.0101 3397.00
17.0753 3287.00
17.1405 3388.00
17.2057 3453.00
17.2709 3446.00
17.3361 3437.00
17.4013 3481.00
17.4665 3790.00
17.5317 4316.00
17.5969 5163.00
17.6621 6241.00
17.7273 6980.00
17.7925 4405.00
17.8577 3374.00
17.9229 3297.00
17.9881 3328.00
18.0533 3310.00
18.1185 3193.00
18.1837 3309.00
18.2489 3261.00
18.3141 3265.00
18.3793 3363.00
18.4445 3205.00
18.5097 3256.00
18.5749 3150.00
18.6401 3176.00
18.7052 3136.00
18.7704 3246.00
18.8356 3234.00
18.9008 3246.00
18.966 3335.00
19.0312 3310.00
19.0964 3045.00
19.1616 3142.00
19.2268 3180.00
19.292 3189.00
19.3572 3229.00
19.4224 3212.00
19.4876 3144.00
19.5528 3218.00
19.618 3322.00
19.6832 3069.00
19.7484 3264.00
19.8136 3227.00
19.8788 3139.00
19.944 3196.00
20.0092 3177.00
20.0744 3254.00
20.1396 3154.00
20.2048 3143.00
20.27 3165.00
20.3352 3329.00
20.4004 3203.00
20.4656 3138.00
20.5308 3126.00
20.596 3239.00
20.6612 3192.00
20.7264 3112.00
20.7916 3304.00
20.8568 3222.00
20.922 3174.00
20.9872 3197.00
21.0524 3242.00
21.1176 3252.00
21.1828 3064.00
21.248 3112.00
21.3132 3158.00
21.3784 3116.00
21.4436 3238.00
21.5088 3134.00
21.574 3158.00
21.6392 3082.00
21.7044 3128.00
21.7696 3060.00
21.8348 3150.00
21.9 3225.00
21.9652 3128.00
22.0304 3191.00
22.0956 3117.00
22.1608 3080.00
22.226 3158.00
22.2912 3053.00
22.3564 3099.00
22.4216 3072.00
22.4868 3017.00
22.552 3042.00
22.6172 3220.00
22.6824 3096.00
22.7476 3074.00
22.8128 3146.00
22.878 3163.00
22.9432 3061.00
23.0084 3003.00
23.0736 2946.00
23.1388 3119.00
23.204 3154.00
23.2692 3053.00
23.3344 3310.00
23.3996 3154.00
23.4647 3332.00
23.5299 3295.00
23.5951 3245.00
23.6603 3310.00
23.7255 3468.00
23.7907 3574.00
23.8559 3859.00
23.9211 4860.00
23.9863 7384.00
24.0515 13172.00
24.1167 23377.00
24.1819 29104.00
24.2471 13842.00
24.3123 4769.00
24.3775 3640.00
24.4427 3507.00
24.5079 3453.00
24.5731 3236.00
24.6383 3212.00
24.7035 3184.00
24.7687 3123.00
24.8339 3148.00
24.8991 3128.00
24.9643 3114.00
25.0295 3217.00
25.0947 3112.00
25.1599 3106.00
25.2251 3193.00
25.2903 3114.00
25.3555 3149.00
25.4207 3177.00
25.4859 3076.00
25.5511 3007.00
25.6163 3022.00
25.6815 3003.00
25.7467 3012.00
25.8119 3071.00
25.8771 3002.00
25.9423 3100.00
26.0075 3011.00
26.0727 2984.00
26.1379 3036.00
26.2031 2999.00
26.2683 3010.00
26.3335 2935.00
26.3987 2976.00
26.4639 3064.00
26.5291 3050.00
26.5943 3024.00
26.6595 3039.00
26.7247 3057.00
26.7899 3022.00
26.8551 2927.00
26.9203 2912.00
26.9855 2779.00
27.0507 2998.00
27.1159 2998.00
27.1811 2905.00
27.2463 2974.00
27.3115 2941.00
27.3767 2970.00
27.4419 2845.00
27.5071 2923.00
27.5723 2937.00
27.6375 2959.00
27.7027 3059.00
27.7679 2888.00
27.8331 2936.00
27.8983 3012.00
27.9635 3012.00
28.0287 2951.00
28.0939 2941.00
28.1591 3058.00
28.2243 2984.00
28.2894 2937.00
28.3546 2953.00
28.4198 2938.00
28.485 2904.00
28.5502 2959.00
28.6154 2932.00
28.6806 2860.00
28.7458 2860.00
28.811 2831.00
28.8762 2895.00
28.9414 2879.00
29.0066 2994.00
29.0718 3020.00
29.137 2920.00
29.2022 2912.00
29.2674 2816.00
29.3326 2961.00
29.3978 2827.00
29.463 2871.00
29.5282 2987.00
29.5934 2909.00
29.6586 2984.00
29.7238 3018.00
29.789 3260.00
29.8542 3770.00
29.9194 4849.00
29.9846 6244.00
30.0498 4750.00
30.115 3357.00
30.1802 3189.00
30.2454 3040.00
30.3106 3064.00
30.3758 3164.00
30.441 3217.00
30.5062 3189.00
30.5714 3302.00
30.6366 3286.00
30.7018 3442.00
30.767 3913.00
30.8322 5400.00
30.8974 9809.00
30.9626 19646.00
31.0278 27384.00
31.093 15705.00
31.1582 5998.00
31.2234 3794.00
31.2886 3497.00
31.3538 3340.00
31.419 3156.00
31.4842 2936.00
31.5494 2950.00
31.6146 2977.00
31.6798 2865.00
31.745 2846.00
31.8102 2962.00
31.8754 2870.00
31.9406 2960.00
32.0058 2857.00
32.071 2991.00
32.1362 2926.00
32.2014 2791.00
32.2666 2895.00
32.3318 2951.00
32.397 2882.00
32.4622 2873.00
32.5274 2869.00
32.5926 2798.00
32.6578 2799.00
32.723 2861.00
32.7882 2867.00
32.8534 2995.00
32.9186 2846.00
32.9838 2927.00
33.0489 2905.00
33.1141 2867.00
33.1793 2937.00
33.2445 2819.00
33.3097 2902.00
33.3749 2960.00
33.4401 2818.00
33.5053 2933.00
33.5705 2897.00
33.6357 2886.00
33.7009 2986.00
33.7661 2899.00
33.8313 3026.00
33.8965 2949.00
33.9617 2960.00
34.0269 3018.00
34.0921 3254.00
34.1573 4233.00
34.2225 6378.00
34.2877 8951.00
34.3529 6305.00
34.4181 4380.00
34.4833 3135.00
34.5485 3021.00
34.6137 2947.00
34.6789 2917.00
34.7441 2901.00
34.8093 2795.00
34.8745 2897.00
34.9397 2869.00
35.0049 2902.00
35.0701 2922.00
35.1353 2815.00
35.2005 2926.00
35.2657 2831.00
35.3309 3067.00
35.3961 3439.00
35.4613 4307.00
35.5265 4689.00
35.5917 3861.00
35.6569 3158.00
35.7221 2823.00
35.7873 2946.00
35.8525 2867.00
35.9177 2806.00
35.9829 2768.00
36.0481 2869.00
36.1133 2771.00
36.1785 2800.00
36.2437 2716.00
36.3089 2817.00
36.3741 2889.00
36.4393 2880.00
36.5045 2825.00
36.5697 2832.00
36.6349 2815.00
36.7001 2914.00
36.7653 2899.00
36.8305 2819.00
36.8957 2951.00
36.9609 3022.00
37.0261 2987.00
37.0913 3170.00
37.1565 3118.00
37.2217 3570.00
37.2869 4120.00
37.3521 5235.00
37.4173 7260.00
37.4825 11425.00
37.5477 13150.00
37.6129 11154.00
37.6781 8112.00
37.7433 5305.00
37.8085 4155.00
37.8736 3629.00
37.9388 3383.00
38.004 3037.00
38.0692 3068.00
38.1344 2908.00
38.1996 2910.00
38.2648 3074.00
38.33 3189.00
38.3952 3553.00
38.4604 3867.00
38.5256 3600.00
38.5908 3612.00
38.656 4770.00
38.7212 6351.00
38.7864 4814.00
38.8516 4022.00
38.9168 2919.00
38.982 2906.00
39.0472 2826.00
39.1124 2779.00
39.1776 2769.00
39.2428 2849.00
39.308 2707.00
39.3732 2825.00
39.4384 2768.00
39.5036 2834.00
39.5688 2702.00
39.634 2791.00
39.6992 2877.00
39.7644 2814.00
39.8296 2815.00
39.8948 2754.00
39.96 2915.00
40.0252 2807.00
40.0904 2749.00
40.1556 2702.00
40.2208 2658.00
40.286 2751.00
40.3512 2790.00
40.4164 2673.00
40.4816 2841.00
40.5468 2747.00
40.612 2825.00
40.6772 2812.00
40.7424 2928.00
40.8076 3153.00
40.8728 3795.00
40.938 3806.00
41.0032 3338.00
41.0684 2974.00
41.1336 2720.00
41.1988 2778.00
41.264 2675.00
41.3292 2707.00
41.3944 2703.00
41.4596 2744.00
41.5248 2751.00
41.59 2811.00
41.6552 2806.00
41.7204 2812.00
41.7856 2724.00
41.8508 2830.00
41.916 2836.00
41.9812 2779.00
42.0464 2826.00
42.1116 2777.00
42.1768 2792.00
42.242 2751.00
42.3072 2748.00
42.3724 2854.00
42.4376 2962.00
42.5028 2912.00
42.568 2795.00
42.6332 2816.00
42.6983 2790.00
42.7635 2861.00
42.8287 2915.00
42.8939 2990.00
42.9591 2907.00
43.0243 3143.00
43.0895 3133.00
43.1547 3251.00
43.2199 3540.00
43.2851 3958.00
43.3503 5115.00
43.4155 7330.00
43.4807 12603.00
43.5459 20326.00
43.6111 19442.00
43.6763 14911.00
43.7415 8884.00
43.8067 5481.00
43.8719 4364.00
43.9371 3671.00
44.0023 3339.00
44.0675 3200.00
44.1327 3154.00
44.1979 3069.00
44.2631 2925.00
44.3283 2756.00
44.3935 2902.00
44.4587 2917.00
44.5239 2834.00
44.5891 2818.00
44.6543 2787.00
44.7195 2728.00
44.7847 2747.00
44.8499 2788.00
44.9151 2780.00
44.9803 2849.00
45.0455 2765.00
45.1107 2860.00
45.1759 2800.00
45.2411 2749.00
45.3063 2854.00
45.3715 2977.00
45.4367 2827.00
45.5019 2804.00
45.5671 2865.00
45.6323 2885.00
45.6975 2899.00
45.7627 2855.00
45.8279 2958.00
45.8931 3358.00
45.9583 4499.00
46.0235 5830.00
46.0887 4377.00
46.1539 4515.00
46.2191 3332.00
46.2843 3069.00
46.3495 3016.00
46.4147 3042.00
46.4799 3146.00
46.5451 3676.00
46.6103 4844.00
46.6755 9222.00
46.7407 15524.00
46.8059 9354.00
46.8711 9266.00
46.9363 4369.00
47.0015 3436.00
47.0667 3044.00
47.1319 2973.00
47.1971 2910.00
47.2623 2810.00
47.3275 2826.00
47.3927 2772.00
47.4579 2784.00
47.523 2852.00
47.5882 2798.00
47.6534 2818.00
47.7186 2818.00
47.7838 2816.00
47.849 3157.00
47.9142 3612.00
47.9794 3307.00
48.0446 3202.00
48.1098 2993.00
48.175 2740.00
48.2402 2753.00
48.3054 2780.00
48.3706 2710.00
48.4358 2726.00
48.501 2657.00
48.5662 2660.00
48.6314 2729.00
48.6966 2874.00
48.7618 2683.00
48.827 2633.00
48.8922 2719.00
48.9574 2727.00
49.0226 2894.00
49.0878 3027.00
49.153 3003.00
49.2182 2903.00
49.2834 2919.00
49.3486 2655.00
49.4138 2659.00
49.479 2691.00
49.5442 2666.00
49.6094 2758.00
49.6746 2661.00
49.7398 2818.00
49.805 2723.00
49.8702 2664.00
49.9354 2723.00
50.0006 2705.00
50.0658 2668.00
50.131 2608.00
50.1962 2713.00
50.2614 2686.00
50.3266 2647.00
50.3918 2698.00
50.457 2681.00
50.5222 2716.00
50.5874 2758.00
50.6526 2599.00
50.7178 2713.00
50.783 2660.00
50.8482 2695.00
50.9134 2685.00
50.9786 2599.00
51.0438 2714.00
51.109 2850.00
51.1742 2661.00
51.2394 2686.00
51.3046 2782.00
51.3698 2775.00
51.435 2678.00
51.5002 2640.00
51.5654 2656.00
51.6306 2670.00
51.6958 2653.00
51.761 2776.00
51.8262 2578.00
51.8914 2616.00
51.9566 2707.00
52.0218 2641.00
52.087 2696.00
52.1522 2615.00
52.2174 2738.00
52.2826 2615.00
52.3477 2687.00
52.4129 2671.00
52.4781 3027.00
52.5433 2824.00
52.6085 2750.00
52.6737 2912.00
52.7389 2689.00
52.8041 2657.00
52.8693 2702.00
52.9345 2589.00
52.9997 2650.00
53.0649 2760.00
53.1301 2626.00
53.1953 2668.00
53.2605 2701.00
53.3257 2669.00
53.3909 2650.00
53.4561 2679.00
53.5213 2646.00
53.5865 2639.00
53.6517 2721.00
53.7169 2642.00
53.7821 2711.00
53.8473 2650.00
53.9125 2702.00
53.9777 2687.00
54.0429 2691.00
54.1081 2644.00
54.1733 2903.00
54.2385 3008.00
54.3037 2712.00
54.3689 2742.00
54.4341 2785.00
54.4993 2734.00
54.5645 2614.00
54.6297 2646.00
54.6949 2647.00
54.7601 2722.00
54.8253 2658.00
54.8905 2721.00
54.9557 2721.00
55.0209 2785.00
55.0861 2682.00
55.1513 2877.00
55.2165 3265.00
55.2817 4251.00
55.3469 4526.00
55.4121 3696.00
55.4773 3768.00
55.5425 2908.00
55.6077 2762.00
55.6729 2892.00
55.7381 2633.00
55.8033 2722.00
55.8685 2618.00
55.9337 2553.00
55.9989 2660.00
56.0641 2655.00
56.1293 2670.00
56.1945 2782.00
56.2597 2714.00
56.3249 2599.00
56.3901 2700.00
56.4553 2637.00
56.5205 2673.00
56.5857 2651.00
56.6509 2688.00
56.7161 2591.00
56.7813 2620.00
56.8465 2634.00
56.9117 2763.00
56.9769 2594.00
57.042 2709.00
57.1073 2609.00
57.1724 2547.00
57.2376 2605.00
57.3028 2716.00
57.368 2642.00
57.4332 2651.00
57.4984 2620.00
57.5636 2637.00
57.6288 2564.00
57.694 2608.00
57.7592 2714.00
57.8244 2665.00
57.8896 2666.00
57.9548 2767.00
58.02 2669.00
58.0852 2633.00
58.1504 2714.00
58.2156 2724.00
58.2808 2580.00
58.346 2729.00
58.4112 2792.00
58.4764 2856.00
58.5416 3196.00
58.6068 4083.00
58.672 4172.00
58.7372 3469.00
58.8024 3688.00
58.8676 3107.00
58.9328 3082.00
58.998 3978.00
59.0632 4921.00
59.1284 3760.00
59.1936 3666.00
59.2588 3525.00
59.324 2930.00
59.3892 2715.00
59.4544 2701.00
59.5196 2675.00
59.5848 2747.00
59.65 2615.00
59.7152 2656.00
59.7804 2719.00
59.8456 2738.00
59.9108 2736.00
59.976 2854.00
60.0412 3077.00
60.1064 3059.00
60.1716 2911.00
60.2368 2957.00
60.302 2739.00
60.3672 2744.00
60.4324 2737.00
60.4976 2657.00
60.5628 2662.00
60.628 2621.00
60.6932 2638.00
60.7584 2646.00
60.8236 2613.00
60.8888 2729.00
60.954 2686.00
61.0192 2712.00
61.0844 2688.00
61.1496 2579.00
61.2148 2619.00
61.28 2762.00
61.3452 2632.00
61.4104 2650.00
61.4756 2641.00
61.5408 2688.00
61.606 2626.00
61.6712 2648.00
61.7364 2707.00
61.8016 2797.00
61.8667 2832.00
61.932 2720.00
61.9971 2784.00
62.0623 2883.00
62.1275 2727.00
62.1927 2768.00
62.2579 2759.00
62.3231 2729.00
62.3883 2738.00
62.4535 2833.00
62.5187 2933.00
62.5839 2844.00
62.6491 2972.00
62.7143 3159.00
62.7795 3390.00
62.8447 3751.00
62.9099 4465.00
62.9751 5383.00
63.0403 6920.00
63.1055 8168.00
63.1707 8372.00
63.2359 7550.00
63.3011 6708.00
63.3663 5638.00
63.4315 4473.00
63.4967 3795.00
63.5619 3461.00
63.6271 3218.00
63.6923 2984.00
63.7575 3102.00
63.8227 3058.00
63.8879 3254.00
63.9531 3003.00
64.0183 3006.00
64.0835 3216.00
64.1487 3676.00
64.2139 4551.00
64.2791 3631.00
64.3443 3359.00
64.4095 3652.00
64.4747 2921.00
64.5399 2837.00
64.6051 2810.00
64.6703 2715.00
64.7355 2650.00
64.8007 2581.00
64.8659 2754.00
64.9311 2620.00
64.9963 2621.00
65.0615 2682.00
65.1267 2599.00
65.1919 2658.00
65.2571 2639.00
65.3223 2715.00
65.3875 2579.00
65.4527 2761.00
65.5179 2685.00
65.5831 2717.00
65.6483 2650.00
65.7135 2781.00
65.7787 2569.00
65.8439 2490.00
65.9091 2641.00
65.9743 2667.00
66.0395 2668.00
66.1047 2647.00
66.1699 2613.00
66.2351 2688.00
66.3003 2592.00
66.3655 2608.00
66.4307 2654.00
66.4959 2734.00
66.561 2677.00
66.6263 2662.00
66.6915 2690.00
66.7566 2642.00
66.8218 2588.00
66.887 2824.00
66.9522 2756.00
67.0174 2750.00
67.0826 2740.00
67.1478 2760.00
67.213 2654.00
67.2782 2650.00
67.3434 2688.00
67.4086 2629.00
67.4738 2617.00
67.539 2659.00
67.6042 2590.00
67.6694 2621.00
67.7346 2613.00
67.7998 2676.00
67.865 2702.00
67.9302 2618.00
67.9954 2644.00
68.0606 2624.00
68.1258 2594.00
68.191 2617.00
68.2562 2629.00
68.3214 2514.00
68.3866 2660.00
68.4518 2556.00
68.517 2691.00
68.5822 2832.00
68.6474 2759.00
68.7126 2663.00
68.7778 2632.00
68.843 2664.00
68.9082 2556.00
68.9734 2786.00
69.0386 2692.00
69.1038 2703.00
69.169 2697.00
69.2342 2704.00
69.2994 2672.00
69.3646 2771.00
69.4298 2718.00
69.495 2654.00
69.5602 2655.00
69.6254 2666.00
69.6906 2695.00
69.7558 2835.00
69.821 3268.00
69.8862 4164.00
69.9514 4789.00
70.0166 3444.00
70.0818 3524.00
70.147 3616.00
70.2122 2968.00
70.2774 2783.00
70.3426 2687.00
70.4078 2661.00
70.473 2623.00
70.5382 2617.00
70.6034 2675.00
70.6686 2581.00
70.7338 2740.00
70.799 2641.00
70.8642 2808.00
70.9294 2678.00
70.9946 2596.00
71.0598 2655.00
71.125 2662.00
71.1902 2655.00
71.2554 2666.00
71.3205 2601.00
71.3858 2749.00
71.451 2668.00
71.5162 2651.00
71.5813 2723.00
71.6465 2805.00
71.7117 2879.00
71.7769 3393.00
71.8421 3046.00
71.9073 2923.00
71.9725 3032.00
72.0377 2948.00
72.1029 2718.00
72.1681 2742.00
72.2333 2601.00
72.2985 2641.00
72.3637 2622.00
72.4289 2643.00
72.4941 2603.00
72.5593 2618.00
72.6245 2610.00
72.6897 2655.00
72.7549 2684.00
72.8201 2659.00
72.8853 2637.00
72.9505 2646.00
73.0157 2639.00
73.0809 2702.00
73.1461 2552.00
73.2113 2545.00
73.2765 2602.00
73.3417 2669.00
73.4069 2577.00
73.4721 2621.00
73.5373 2627.00
73.6025 2599.00
73.6677 2692.00
73.7329 2757.00
73.7981 2715.00
73.8633 2617.00
73.9285 2696.00
73.9937 2738.00
74.0589 2768.00
74.1241 2746.00
74.1893 2680.00
74.2545 2592.00
74.3197 2794.00
74.3849 2770.00
74.4501 2738.00
74.5153 2913.00
74.5805 3140.00
74.6457 3798.00
74.7109 4161.00
74.7761 3178.00
74.8413 3298.00
74.9065 3546.00
74.9717 3139.00
75.0369 2905.00
75.1021 2886.00
75.1673 2888.00
75.2325 2865.00
75.2977 2967.00
75.3629 3157.00
75.4281 3276.00
75.4933 3674.00
75.5585 4176.00
75.6237 4602.00
75.6889 4553.00
75.7541 4269.00
75.8193 4110.00
75.8845 3931.00
75.9497 3630.00
76.0149 3284.00
76.0801 3097.00
76.1452 2970.00
76.2104 2929.00
76.2756 2861.00
76.3409 2815.00
76.406 2736.00
76.4712 2715.00
76.5364 2681.00
76.6016 2696.00
76.6668 2673.00
76.732 2678.00
76.7972 2833.00
76.8624 3023.00
76.9276 2796.00
76.9928 2703.00
77.058 2751.00
77.1232 2850.00
77.1884 2743.00
77.2536 2709.00
77.3188 2695.00
77.384 2628.00
77.4492 2718.00
77.5144 2624.00
77.5796 2615.00
77.6448 2648.00
77.71 2639.00
77.7752 2594.00
77.8404 2598.00
77.9056 2568.00
77.9708 2625.00
78.036 2760.00
78.1012 2595.00
78.1664 2683.00
78.2316 2598.00
78.2968 2676.00
78.362 2736.00
78.4272 2674.00
78.4924 2685.00
78.5576 2727.00
78.6228 2646.00
78.688 2733.00
78.7532 2741.00
78.8184 2722.00
78.8836 2747.00
78.9488 2689.00
79.014 2731.00
79.0792 2853.00
79.1444 2900.00
79.2096 2903.00
79.2748 2994.00
79.34 3063.00
79.4052 3228.00
79.4704 3527.00
79.5356 4117.00
79.6008 4432.00
79.666 4824.00
79.7312 4941.00
79.7964 4187.00
79.8616 3943.00
79.9268 4275.00
79.992 4106.00
80.0572 4300.00
80.1224 3841.00
80.1876 3211.00
80.2528 3322.00
80.318 3381.00
80.3832 3016.00
80.4484 2940.00
80.5136 2768.00
80.5788 2731.00
80.644 2657.00
80.7092 2734.00
80.7744 2643.00
80.8396 2654.00
80.9048 2672.00
80.9699 2775.00
81.0351 2758.00
81.1003 2649.00
81.1655 2603.00
81.2307 2765.00
81.2959 2597.00
81.3611 2593.00
81.4263 2759.00
81.4915 2722.00
81.5567 2646.00
81.6219 2787.00
81.6871 2783.00
81.7523 2904.00
81.8175 3382.00
81.8827 3317.00
81.9479 2973.00
82.0131 2862.00
82.0783 3079.00
82.1435 2961.00
82.2087 2732.00
82.2739 2679.00
82.3391 2683.00
82.4043 2666.00
82.4695 2764.00
82.5347 2792.00
82.5999 2723.00
82.6651 2720.00
82.7303 2685.00
82.7955 2638.00
82.8607 2728.00
82.9259 2779.00
82.9911 2667.00
83.0563 2667.00
83.1215 2638.00
83.1867 2571.00
83.2519 2644.00
83.3171 2672.00
83.3823 2662.00
83.4475 2644.00
83.5127 2693.00
83.5779 2643.00
83.6431 2617.00
83.7083 2663.00
83.7735 2692.00
83.8387 2687.00
83.9039 2751.00
83.9691 2662.00
84.0343 2716.00
84.0995 2611.00
84.1647 2630.00
84.2299 2645.00
84.2951 2612.00
84.3603 2733.00
84.4255 2643.00
84.4907 2648.00
84.5559 2650.00
84.6211 2492.00
84.6863 2643.00
84.7515 2641.00
84.8167 2666.00
84.8819 2588.00
84.9471 2615.00
85.0123 2592.00
85.0775 2576.00
85.1427 2653.00
85.2079 2594.00
85.2731 2505.00
85.3383 2642.00
85.4035 2643.00
85.4687 2652.00
85.5339 2715.00
85.5991 2819.00
85.6643 3070.00
85.7295 2816.00
85.7946 2793.00
85.8598 2735.00
85.925 2975.00
85.9903 2701.00
86.0554 2619.00
86.1206 2680.00
86.1858 2548.00
86.251 2650.00
86.3162 2610.00
86.3814 2536.00
86.4466 2564.00
86.5118 2600.00
86.577 2599.00
86.6422 2624.00
86.7074 2642.00
86.7726 2642.00
86.8378 2591.00
86.903 2749.00
86.9682 2668.00
87.0334 2687.00
87.0986 2727.00
87.1638 2632.00
87.229 2686.00
87.2942 2631.00
87.3594 2707.00
87.4246 2617.00
87.4898 2656.00
87.555 2559.00
87.6202 2579.00
87.6854 2575.00
87.7506 2604.00
87.8158 2631.00
87.881 2686.00
87.9462 2599.00
88.0114 2682.00
88.0766 2614.00
88.1418 2626.00
88.207 2725.00
88.2722 2701.00
88.3374 2653.00
88.4026 2528.00
88.4678 2640.00
88.533 2550.00
88.5982 2578.00
88.6634 2557.00
88.7286 2602.00
88.7938 2482.00
88.859 2566.00
88.9242 2609.00
88.9894 2586.00
89.0546 2673.00
89.1198 2601.00
89.185 2669.00
89.2502 2560.00
89.3154 2652.00
89.3806 2805.00
89.4458 2721.00
89.511 2598.00
89.5762 2702.00
89.6414 2673.00
89.7066 2665.00
89.7718 2640.00
89.837 2595.00
89.9022 2578.00
89.9674 2574.00
90.0326 2638.00
90.0978 2686.00
90.163 2622.00
90.2282 2638.00
90.2934 2537.00
90.3586 2548.00
90.4238 2572.00
90.489 2664.00
90.5542 2630.00
90.6193 2584.00
90.6845 2640.00
90.7497 2643.00
90.8149 2676.00
90.8801 2594.00
90.9453 2709.00
91.0105 2591.00
91.0757 2613.00
91.1409 2551.00
91.2061 2683.00
91.2713 2569.00
91.3365 2602.00
91.4017 2626.00
91.4669 2577.00
91.5321 2683.00
91.5973 2605.00
91.6625 2580.00
91.7277 2528.00
91.7929 2507.00
91.8581 2649.00
91.9233 2645.00
91.9885 2559.00
92.0537 2633.00
92.1189 2514.00
92.1841 2429.00
92.2493 2621.00
92.3145 2612.00
92.3797 2527.00
92.4449 2628.00
92.5101 2506.00
92.5753 2663.00
92.6405 2552.00
92.7057 2563.00
92.7709 2600.00
92.8361 2545.00
92.9013 2551.00
92.9665 2604.00
93.0317 2659.00
93.0969 2646.00
93.1621 2596.00
93.2273 2566.00
93.2925 2558.00
93.3577 2633.00
93.4229 2631.00
93.4881 2606.00
93.5533 2599.00
93.6185 2622.00
93.6837 2614.00
93.7489 2606.00
93.8141 2668.00
93.8793 2706.00
93.9445 2579.00
94.0097 2529.00
94.0749 2572.00
94.1401 2691.00
94.2053 2631.00
94.2705 2706.00
94.3357 2698.00
94.4009 2803.00
94.4661 2733.00
94.5313 2637.00
94.5965 2658.00
94.6617 2693.00
94.7269 2838.00
94.7921 2688.00
94.8573 2737.00
94.9225 2760.00
94.9877 2697.00
95.0529 2816.00
95.1181 3072.00
95.1833 3171.00
95.2485 3212.00
95.3137 3388.00
95.3789 3243.00
95.444 3638.00
95.5092 3493.00
95.5744 3240.00
95.6396 3007.00
95.7048 3085.00
95.77 3113.00
95.8352 3005.00
95.9004 2714.00
95.9656 2744.00
96.0308 2713.00
96.096 2729.00
96.1612 2673.00
96.2264 2656.00
96.2916 2733.00
96.3568 2722.00
96.422 2802.00
96.4872 2924.00
96.5524 2992.00
96.6176 2810.00
96.6828 2697.00
96.748 2726.00
96.8132 2751.00
96.8784 2822.00
96.9436 2775.00
97.0088 2745.00
97.074 2584.00
97.1392 2808.00
97.2044 2722.00
97.2696 2709.00
97.3348 2633.00
97.4 2709.00
97.4652 2638.00
97.5304 2681.00
97.5956 2696.00
97.6608 2599.00
97.726 2621.00
97.7912 2676.00
97.8564 2566.00
97.9216 2661.00
97.9868 2592.00
98.052 2664.00
98.1172 2662.00
98.1824 2628.00
98.2476 2622.00
98.3128 2628.00
98.378 2620.00
98.4432 2616.00
98.5084 2642.00
98.5736 2697.00
98.6388 2583.00
98.704 2658.00
98.7692 2562.00
98.8344 2613.00
98.8996 2689.00
98.9648 2705.00
99.03 2671.00
99.0952 2702.00
99.1604 2794.00
99.2256 2780.00
99.2908 2951.00
99.356 3022.00
99.4212 2829.00
99.4864 2718.00
99.5516 2860.00
99.6168 3061.00
99.682 3544.00
99.7472 3403.00
99.8124 3014.00
99.8776 2791.00
99.9428 2920.00
100.008 2972.00
100.073 3031.00
100.095 2997.00