File: data/xrd_creation/results/PG_2138-1.xy
9.903433 2722.00
9.968632 2641.00
10.0338 2624.00
10.099 2681.00
10.1642 2677.00
10.2294 2583.00
10.2946 2669.00
10.3598 2576.00
10.425 2559.00
10.4902 2571.00
10.5554 2549.00
10.6206 2388.00
10.6858 2442.00
10.751 2427.00
10.8162 2524.00
10.8814 2438.00
10.9466 2376.00
11.0118 2421.00
11.077 2295.00
11.1422 2336.00
11.2074 2394.00
11.2726 2372.00
11.3378 2391.00
11.403 2319.00
11.4682 2216.00
11.5334 2312.00
11.5986 2147.00
11.6638 2122.00
11.729 2150.00
11.7942 2152.00
11.8594 2238.00
11.9246 2150.00
11.9898 2201.00
12.055 2141.00
12.1202 2149.00
12.1854 2161.00
12.2506 2186.00
12.3158 2053.00
12.381 2112.00
12.4462 2175.00
12.5114 2103.00
12.5766 2219.00
12.6418 2180.00
12.707 2131.00
12.7722 2119.00
12.8374 2086.00
12.9026 2014.00
12.9678 2043.00
13.033 2051.00
13.0982 2031.00
13.1634 1990.00
13.2286 2017.00
13.2938 1999.00
13.359 1999.00
13.4242 2000.00
13.4894 1985.00
13.5546 1978.00
13.6198 1934.00
13.685 1991.00
13.7502 1989.00
13.8154 1944.00
13.8805 1870.00
13.9457 1954.00
14.0109 1900.00
14.0761 1945.00
14.1413 1946.00
14.2065 1925.00
14.2717 1849.00
14.3369 1878.00
14.4021 1935.00
14.4673 1900.00
14.5325 1835.00
14.5977 1940.00
14.6629 1820.00
14.7281 1856.00
14.7933 1852.00
14.8585 1832.00
14.9237 1892.00
14.9889 1945.00
15.0541 1869.00
15.1193 1804.00
15.1845 1864.00
15.2497 1904.00
15.3149 1886.00
15.3801 1963.00
15.4453 2034.00
15.5105 2192.00
15.5757 2289.00
15.6409 2500.00
15.7061 2866.00
15.7713 3435.00
15.8365 4534.00
15.9017 6048.00
15.9669 7858.00
16.0321 9051.00
16.0973 7956.00
16.1625 5074.00
16.2277 3362.00
16.2929 2838.00
16.3581 2302.00
16.4233 2140.00
16.4885 1974.00
16.5537 1934.00
16.6189 1987.00
16.6841 1852.00
16.7493 1842.00
16.8145 1757.00
16.8797 1684.00
16.9449 1782.00
17.0101 1778.00
17.0753 1873.00
17.1405 1751.00
17.2057 1758.00
17.2709 1809.00
17.3361 1820.00
17.4013 1831.00
17.4665 1895.00
17.5317 1708.00
17.5969 1776.00
17.6621 1829.00
17.7273 1713.00
17.7925 1669.00
17.8577 1646.00
17.9229 1621.00
17.9881 1586.00
18.0533 1668.00
18.1185 1649.00
18.1837 1564.00
18.2489 1627.00
18.3141 1564.00
18.3793 1516.00
18.4445 1606.00
18.5097 1632.00
18.5749 1602.00
18.6401 1556.00
18.7052 1564.00
18.7704 1640.00
18.8356 1620.00
18.9008 1645.00
18.966 1515.00
19.0312 1499.00
19.0964 1562.00
19.1616 1498.00
19.2268 1597.00
19.292 1559.00
19.3572 1524.00
19.4224 1486.00
19.4876 1487.00
19.5528 1563.00
19.618 1487.00
19.6832 1473.00
19.7484 1457.00
19.8136 1494.00
19.8788 1523.00
19.944 1497.00
20.0092 1451.00
20.0744 1438.00
20.1396 1444.00
20.2048 1508.00
20.27 1528.00
20.3352 1501.00
20.4004 1490.00
20.4656 1491.00
20.5308 1399.00
20.596 1418.00
20.6612 1547.00
20.7264 1507.00
20.7916 1477.00
20.8568 1465.00
20.922 1424.00
20.9872 1496.00
21.0524 1483.00
21.1176 1403.00
21.1828 1425.00
21.248 1442.00
21.3132 1431.00
21.3784 1446.00
21.4436 1407.00
21.5088 1508.00
21.574 1395.00
21.6392 1410.00
21.7044 1435.00
21.7696 1471.00
21.8348 1380.00
21.9 1371.00
21.9652 1419.00
22.0304 1437.00
22.0956 1344.00
22.1608 1426.00
22.226 1429.00
22.2912 1427.00
22.3564 1440.00
22.4216 1422.00
22.4868 1548.00
22.552 1413.00
22.6172 1535.00
22.6824 1608.00
22.7476 1999.00
22.8128 2450.00
22.878 3826.00
22.9432 5868.00
23.0084 7597.00
23.0736 4711.00
23.1388 2238.00
23.204 1685.00
23.2692 1494.00
23.3344 1489.00
23.3996 1483.00
23.4647 1428.00
23.5299 1379.00
23.5951 1391.00
23.6603 1430.00
23.7255 1318.00
23.7907 1323.00
23.8559 1382.00
23.9211 1335.00
23.9863 1308.00
24.0515 1355.00
24.1167 1399.00
24.1819 1380.00
24.2471 1351.00
24.3123 1399.00
24.3775 1318.00
24.4427 1313.00
24.5079 1381.00
24.5731 1357.00
24.6383 1293.00
24.7035 1366.00
24.7687 1264.00
24.8339 1375.00
24.8991 1278.00
24.9643 1285.00
25.0295 1342.00
25.0947 1372.00
25.1599 1344.00
25.2251 1333.00
25.2903 1339.00
25.3555 1309.00
25.4207 1370.00
25.4859 1378.00
25.5511 1306.00
25.6163 1357.00
25.6815 1363.00
25.7467 1271.00
25.8119 1314.00
25.8771 1301.00
25.9423 1392.00
26.0075 1398.00
26.0727 1385.00
26.1379 1351.00
26.2031 1308.00
26.2683 1381.00
26.3335 1312.00
26.3987 1332.00
26.4639 1376.00
26.5291 1346.00
26.5943 1302.00
26.6595 1279.00
26.7247 1330.00
26.7899 1346.00
26.8551 1426.00
26.9203 1412.00
26.9855 1472.00
27.0507 1461.00
27.1159 1423.00
27.1811 1574.00
27.2463 1764.00
27.3115 1890.00
27.3767 2386.00
27.4419 3077.00
27.5071 4220.00
27.5723 5791.00
27.6375 7318.00
27.7027 7365.00
27.7679 5699.00
27.8331 4169.00
27.8983 3117.00
27.9635 2805.00
28.0287 2756.00
28.0939 3105.00
28.1591 4099.00
28.2243 5843.00
28.2894 8334.00
28.3546 10219.00
28.4198 9316.00
28.485 6652.00
28.5502 5236.00
28.6154 5354.00
28.6806 6798.00
28.7458 7284.00
28.811 5502.00
28.8762 3432.00
28.9414 2615.00
29.0066 2146.00
29.0718 2140.00
29.137 2200.00
29.2022 2420.00
29.2674 3104.00
29.3326 3488.00
29.3978 2816.00
29.463 1990.00
29.5282 1610.00
29.5934 1519.00
29.6586 1501.00
29.7238 1403.00
29.789 1353.00
29.8542 1329.00
29.9194 1288.00
29.9846 1217.00
30.0498 1306.00
30.115 1230.00
30.1802 1206.00
30.2454 1258.00
30.3106 1215.00
30.3758 1254.00
30.441 1151.00
30.5062 1234.00
30.5714 1192.00
30.6366 1180.00
30.7018 1182.00
30.767 1161.00
30.8322 1158.00
30.8974 1185.00
30.9626 1237.00
31.0278 1177.00
31.093 1281.00
31.1582 1184.00
31.2234 1185.00
31.2886 1191.00
31.3538 1218.00
31.419 1213.00
31.4842 1289.00
31.5494 1263.00
31.6146 1321.00
31.6798 1396.00
31.745 1463.00
31.8102 1740.00
31.8754 2091.00
31.9406 2553.00
32.0058 2630.00
32.071 2267.00
32.1362 1883.00
32.2014 1475.00
32.2666 1339.00
32.3318 1283.00
32.397 1232.00
32.4622 1124.00
32.5274 1185.00
32.5926 1099.00
32.6578 1109.00
32.723 1126.00
32.7882 1068.00
32.8534 1052.00
32.9186 1125.00
32.9838 1112.00
33.0489 1185.00
33.1141 1208.00
33.1793 1292.00
33.2445 1156.00
33.3097 1046.00
33.3749 1154.00
33.4401 1081.00
33.5053 1102.00
33.5705 1111.00
33.6357 1010.00
33.7009 1071.00
33.7661 1060.00
33.8313 977.00
33.8965 954.00
33.9617 1037.00
34.0269 980.00
34.0921 1016.00
34.1573 964.00
34.2225 993.00
34.2877 1019.00
34.3529 1021.00
34.4181 985.00
34.4833 972.00
34.5485 1016.00
34.6137 1050.00
34.6789 991.00
34.7441 998.00
34.8093 1079.00
34.8745 1026.00
34.9397 1025.00
35.0049 1068.00
35.0701 1019.00
35.1353 1009.00
35.2005 1007.00
35.2657 1046.00
35.3309 1024.00
35.3961 996.00
35.4613 996.00
35.5265 978.00
35.5917 1029.00
35.6569 1038.00
35.7221 1016.00
35.7873 1066.00
35.8525 1023.00
35.9177 1061.00
35.9829 1013.00
36.0481 1090.00
36.1133 1136.00
36.1785 1213.00
36.2437 1333.00
36.3089 1408.00
36.3741 1674.00
36.4393 1558.00
36.5045 1393.00
36.5697 1264.00
36.6349 1207.00
36.7001 1266.00
36.7653 1567.00
36.8305 2141.00
36.8957 3130.00
36.9609 3104.00
37.0261 2548.00
37.0913 1824.00
37.1565 1437.00
37.2217 1337.00
37.2869 1466.00
37.3521 1758.00
37.4173 1930.00
37.4825 1699.00
37.5477 1235.00
37.6129 1090.00
37.6781 966.00
37.7433 1036.00
37.8085 961.00
37.8736 967.00
37.9388 978.00
38.004 968.00
38.0692 935.00
38.1344 924.00
38.1996 982.00
38.2648 971.00
38.33 968.00
38.3952 943.00
38.4604 893.00
38.5256 996.00
38.5908 967.00
38.656 968.00
38.7212 1032.00
38.7864 1023.00
38.8516 984.00
38.9168 1089.00
38.982 957.00
39.0472 1067.00
39.1124 1090.00
39.1776 1108.00
39.2428 1149.00
39.308 1190.00
39.3732 1355.00
39.4384 1383.00
39.5036 1683.00
39.5688 1978.00
39.634 2639.00
39.6992 3702.00
39.7644 5151.00
39.8296 6311.00
39.8948 6283.00
39.96 5190.00
40.0252 3782.00
40.0904 2617.00
40.1556 2056.00
40.2208 1556.00
40.286 1423.00
40.3512 1298.00
40.4164 1201.00
40.4816 1188.00
40.5468 1007.00
40.612 1038.00
40.6772 1054.00
40.7424 979.00
40.8076 950.00
40.8728 1050.00
40.938 947.00
41.0032 920.00
41.0684 968.00
41.1336 929.00
41.1988 950.00
41.264 958.00
41.3292 940.00
41.3944 946.00
41.4596 917.00
41.5248 931.00
41.59 939.00
41.6552 979.00
41.7204 933.00
41.7856 913.00
41.8508 927.00
41.916 940.00
41.9812 930.00
42.0464 922.00
42.1116 1016.00
42.1768 969.00
42.242 1085.00
42.3072 1065.00
42.3724 1242.00
42.4376 1393.00
42.5028 1684.00
42.568 1793.00
42.6332 1881.00
42.6983 1739.00
42.7635 1601.00
42.8287 1432.00
42.8939 1243.00
42.9591 1263.00
43.0243 1217.00
43.0895 1121.00
43.1547 1030.00
43.2199 1044.00
43.2851 945.00
43.3503 964.00
43.4155 890.00
43.4807 886.00
43.5459 888.00
43.6111 957.00
43.6763 920.00
43.7415 930.00
43.8067 911.00
43.8719 883.00
43.9371 889.00
44.0023 908.00
44.0675 892.00
44.1327 902.00
44.1979 857.00
44.2631 845.00
44.3283 955.00
44.3935 915.00
44.4587 917.00
44.5239 870.00
44.5891 894.00
44.6543 927.00
44.7195 903.00
44.7847 925.00
44.8499 964.00
44.9151 965.00
44.9803 882.00
45.0455 946.00
45.1107 946.00
45.1759 965.00
45.2411 966.00
45.3063 1067.00
45.3715 1081.00
45.4367 1218.00
45.5019 1168.00
45.5671 1111.00
45.6323 956.00
45.6975 895.00
45.7627 1000.00
45.8279 915.00
45.8931 869.00
45.9583 909.00
46.0235 963.00
46.0887 950.00
46.1539 987.00
46.2191 1029.00
46.2843 1099.00
46.3495 1169.00
46.4147 1444.00
46.4799 2159.00
46.5451 2124.00
46.6103 1810.00
46.6755 1457.00
46.7407 1026.00
46.8059 1058.00
46.8711 984.00
46.9363 927.00
47.0015 944.00
47.0667 987.00
47.1319 990.00
47.1971 1051.00
47.2623 1163.00
47.3275 1401.00
47.3927 1703.00
47.4579 1825.00
47.523 1832.00
47.5882 1613.00
47.6534 1405.00
47.7186 1282.00
47.7838 1095.00
47.849 1109.00
47.9142 1147.00
47.9794 1070.00
48.0446 1138.00
48.1098 1119.00
48.175 1217.00
48.2402 1358.00
48.3054 1595.00
48.3706 1914.00
48.4358 2309.00
48.501 2756.00
48.5662 3129.00
48.6314 3381.00
48.6966 3286.00
48.7618 3328.00
48.827 3503.00
48.8922 4196.00
48.9574 5124.00
49.0226 5315.00
49.0878 4943.00
49.153 4217.00
49.2182 3186.00
49.2834 2565.00
49.3486 2098.00
49.4138 1705.00
49.479 1523.00
49.5442 1383.00
49.6094 1366.00
49.6746 1257.00
49.7398 1235.00
49.805 1233.00
49.8702 1177.00
49.9354 1189.00
50.0006 1293.00
50.0658 1554.00
50.131 1966.00
50.1962 1922.00
50.2614 2028.00
50.3266 1806.00
50.3918 1690.00
50.457 1409.00
50.5222 1260.00
50.5874 1120.00
50.6526 1105.00
50.7178 1022.00
50.783 1034.00
50.8482 1005.00
50.9134 1058.00
50.9786 1119.00
51.0438 1180.00
51.109 1266.00
51.1742 1447.00
51.2394 1756.00
51.3046 1887.00
51.3698 1647.00
51.435 1546.00
51.5002 1256.00
51.5654 1121.00
51.6306 1001.00
51.6958 1021.00
51.761 942.00
51.8262 922.00
51.8914 948.00
51.9566 903.00
52.0218 891.00
52.087 870.00
52.1522 871.00
52.2174 864.00
52.2826 889.00
52.3477 816.00
52.4129 787.00
52.4781 887.00
52.5433 894.00
52.6085 899.00
52.6737 910.00
52.7389 823.00
52.8041 901.00
52.8693 922.00
52.9345 869.00
52.9997 885.00
53.0649 882.00
53.1301 911.00
53.1953 871.00
53.2605 794.00
53.3257 871.00
53.3909 849.00
53.4561 862.00
53.5213 871.00
53.5865 842.00
53.6517 880.00
53.7169 924.00
53.7821 847.00
53.8473 918.00
53.9125 808.00
53.9777 909.00
54.0429 834.00
54.1081 842.00
54.1733 818.00
54.2385 812.00
54.3037 892.00
54.3689 820.00
54.4341 832.00
54.4993 919.00
54.5645 888.00
54.6297 844.00
54.6949 866.00
54.7601 860.00
54.8253 901.00
54.8905 921.00
54.9557 883.00
55.0209 902.00
55.0861 986.00
55.1513 1048.00
55.2165 1205.00
55.2817 1388.00
55.3469 1951.00
55.4121 2205.00
55.4773 2396.00
55.5425 2632.00
55.6077 2919.00
55.6729 2878.00
55.7381 2755.00
55.8033 2483.00
55.8685 2067.00
55.9337 1694.00
55.9989 1335.00
56.0641 1211.00
56.1293 1209.00
56.1945 1101.00
56.2597 1121.00
56.3249 1135.00
56.3901 1221.00
56.4553 1319.00
56.5205 1526.00
56.5857 1648.00
56.6509 1879.00
56.7161 1902.00
56.7813 1841.00
56.8465 1646.00
56.9117 1367.00
56.9769 1179.00
57.042 981.00
57.1073 978.00
57.1724 901.00
57.2376 908.00
57.3028 865.00
57.368 907.00
57.4332 912.00
57.4984 803.00
57.5636 890.00
57.6288 878.00
57.694 846.00
57.7592 869.00
57.8244 877.00
57.8896 909.00
57.9548 958.00
58.02 988.00
58.0852 1090.00
58.1504 1204.00
58.2156 1110.00
58.2808 1126.00
58.346 1031.00
58.4112 1038.00
58.4764 942.00
58.5416 891.00
58.6068 941.00
58.672 978.00
58.7372 1045.00
58.8024 1091.00
58.8676 1154.00
58.9328 1370.00
58.998 1350.00
59.0632 1411.00
59.1284 1361.00
59.1936 1302.00
59.2588 1275.00
59.324 1095.00
59.3892 1030.00
59.4544 966.00
59.5196 889.00
59.5848 902.00
59.65 846.00
59.7152 881.00
59.7804 774.00
59.8456 855.00
59.9108 831.00
59.976 855.00
60.0412 874.00
60.1064 865.00
60.1716 917.00
60.2368 876.00
60.302 909.00
60.3672 891.00
60.4324 884.00
60.4976 862.00
60.5628 826.00
60.628 805.00
60.6932 829.00
60.7584 779.00
60.8236 762.00
60.8888 769.00
60.954 823.00
61.0192 831.00
61.0844 800.00
61.1496 785.00
61.2148 846.00
61.28 787.00
61.3452 844.00
61.4104 778.00
61.4756 827.00
61.5408 840.00
61.606 809.00
61.6712 802.00
61.7364 776.00
61.8016 781.00
61.8667 858.00
61.932 797.00
61.9971 836.00
62.0623 797.00
62.1275 763.00
62.1927 761.00
62.2579 843.00
62.3231 861.00
62.3883 785.00
62.4535 810.00
62.5187 865.00
62.5839 845.00
62.6491 820.00
62.7143 774.00
62.7795 788.00
62.8447 789.00
62.9099 796.00
62.9751 803.00
63.0403 794.00
63.1055 772.00
63.1707 827.00
63.2359 761.00
63.3011 843.00
63.3663 824.00
63.4315 877.00
63.4967 858.00
63.5619 883.00
63.6271 915.00
63.6923 1003.00
63.7575 971.00
63.8227 1104.00
63.8879 1234.00
63.9531 1374.00
64.0183 1354.00
64.0835 1363.00
64.1487 1534.00
64.2139 1633.00
64.2791 1827.00
64.3443 1785.00
64.4095 1702.00
64.4747 1727.00
64.5399 1564.00
64.6051 1435.00
64.6703 1231.00
64.7355 1063.00
64.8007 1143.00
64.8659 1001.00
64.9311 995.00
64.9963 983.00
65.0615 1045.00
65.1267 1034.00
65.1919 1081.00
65.2571 1111.00
65.3223 1177.00
65.3875 1210.00
65.4527 1155.00
65.5179 1229.00
65.5831 1051.00
65.6483 1070.00
65.7135 1012.00
65.7787 1004.00
65.8439 931.00
65.9091 918.00
65.9743 880.00
66.0395 878.00
66.1047 867.00
66.1699 882.00
66.2351 913.00
66.3003 934.00
66.3655 982.00
66.4307 965.00
66.4959 929.00
66.561 917.00
66.6263 838.00
66.6915 907.00
66.7566 841.00
66.8218 781.00
66.887 836.00
66.9522 796.00
67.0174 835.00
67.0826 846.00
67.1478 817.00
67.213 851.00
67.2782 787.00
67.3434 828.00
67.4086 839.00
67.4738 789.00
67.539 816.00
67.6042 869.00
67.6694 771.00
67.7346 775.00
67.7998 749.00
67.865 812.00
67.9302 744.00
67.9954 797.00
68.0606 781.00
68.1258 804.00
68.191 805.00
68.2562 782.00
68.3214 735.00
68.3866 746.00
68.4518 815.00
68.517 753.00
68.5822 812.00
68.6474 812.00
68.7126 839.00
68.7778 776.00
68.843 860.00
68.9082 791.00
68.9734 794.00
69.0386 820.00
69.1038 774.00
69.169 791.00
69.2342 825.00
69.2994 829.00
69.3646 828.00
69.4298 854.00
69.495 857.00
69.5602 870.00
69.6254 946.00
69.6906 996.00
69.7558 1051.00
69.821 1170.00
69.8862 1310.00
69.9514 1428.00
70.0166 1545.00
70.0818 1493.00
70.147 1431.00
70.2122 1326.00
70.2774 1210.00
70.3426 1112.00
70.4078 1085.00
70.473 1152.00
70.5382 1173.00
70.6034 1031.00
70.6686 1047.00
70.7338 1037.00
70.799 959.00
70.8642 934.00
70.9294 904.00
70.9946 955.00
71.0598 1009.00
71.125 1011.00
71.1902 1107.00
71.2554 1182.00
71.3205 1193.00
71.3858 1177.00
71.451 1248.00
71.5162 1226.00
71.5813 1109.00
71.6465 1127.00
71.7117 964.00
71.7769 872.00
71.8421 835.00
71.9073 814.00
71.9725 751.00
72.0377 842.00
72.1029 783.00
72.1681 744.00
72.2333 846.00
72.2985 867.00
72.3637 758.00
72.4289 812.00
72.4941 848.00
72.5593 819.00
72.6245 776.00
72.6897 786.00
72.7549 776.00
72.8201 796.00
72.8853 842.00
72.9505 801.00
73.0157 891.00
73.0809 835.00
73.1461 882.00
73.2113 859.00
73.2765 849.00
73.3417 869.00
73.4069 781.00
73.4721 793.00
73.5373 778.00
73.6025 780.00
73.6677 746.00
73.7329 732.00
73.7981 821.00
73.8633 667.00
73.9285 807.00
73.9937 795.00
74.0589 756.00
74.1241 775.00
74.1893 751.00
74.2545 725.00
74.3197 709.00
74.3849 710.00
74.4501 818.00
74.5153 752.00
74.5805 772.00
74.6457 732.00
74.7109 727.00
74.7761 723.00
74.8413 740.00
74.9065 787.00
74.9717 785.00
75.0369 788.00
75.1021 773.00
75.1673 740.00
75.2325 778.00
75.2977 812.00
75.3629 695.00
75.4281 783.00
75.4933 838.00
75.5585 789.00
75.6237 811.00
75.6889 788.00
75.7541 801.00
75.8193 884.00
75.8845 896.00
75.9497 988.00
76.0149 988.00
76.0801 1036.00
76.1452 1086.00
76.2104 1199.00
76.2756 1101.00
76.3409 1119.00
76.406 1130.00
76.4712 1191.00
76.5364 1194.00
76.6016 1111.00
76.6668 1155.00
76.732 1165.00
76.7972 1177.00
76.8624 1127.00
76.9276 1138.00
76.9928 1096.00
77.058 1080.00
77.1232 1108.00
77.1884 1058.00
77.2536 1070.00
77.3188 1273.00
77.384 1264.00
77.4492 1443.00
77.5144 1510.00
77.5796 1585.00
77.6448 1638.00
77.71 1774.00
77.7752 1703.00
77.8404 1794.00
77.9056 1837.00
77.9708 1649.00
78.036 1626.00
78.1012 1510.00
78.1664 1411.00
78.2316 1347.00
78.2968 1286.00
78.362 1087.00
78.4272 1119.00
78.4924 1014.00
78.5576 997.00
78.6228 1036.00
78.688 1034.00
78.7532 990.00
78.8184 1089.00
78.8836 1037.00
78.9488 1065.00
79.014 1001.00
79.0792 1026.00
79.1444 986.00
79.2096 908.00
79.2748 951.00
79.34 857.00
79.4052 914.00
79.4704 888.00
79.5356 806.00
79.6008 847.00
79.666 890.00
79.7312 876.00
79.7964 827.00
79.8616 767.00
79.9268 815.00
79.992 792.00
80.0572 855.00
80.1224 800.00
80.1876 739.00
80.2528 786.00
80.318 817.00
80.3832 856.00
80.4484 846.00
80.5136 846.00
80.5788 872.00
80.644 801.00
80.7092 832.00
80.7744 775.00
80.8396 772.00
80.9048 758.00
80.9699 771.00
81.0351 793.00
81.1003 673.00
81.1655 697.00
81.2307 783.00
81.2959 761.00
81.3611 731.00
81.4263 821.00
81.4915 798.00
81.5567 805.00
81.6219 756.00
81.6871 750.00
81.7523 732.00
81.8175 829.00
81.8827 837.00
81.9479 786.00
82.0131 802.00
82.0783 767.00
82.1435 803.00
82.2087 866.00
82.2739 830.00
82.3391 865.00
82.4043 880.00
82.4695 948.00
82.5347 933.00
82.5999 1032.00
82.6651 1083.00
82.7303 1033.00
82.7955 1074.00
82.8607 989.00
82.9259 942.00
82.9911 891.00
83.0563 840.00
83.1215 871.00
83.1867 790.00
83.2519 788.00
83.3171 763.00
83.3823 764.00
83.4475 790.00
83.5127 725.00
83.5779 760.00
83.6431 735.00
83.7083 763.00
83.7735 742.00
83.8387 701.00
83.9039 730.00
83.9691 774.00
84.0343 728.00
84.0995 708.00
84.1647 695.00
84.2299 806.00
84.2951 711.00
84.3603 758.00
84.4255 766.00
84.4907 755.00
84.5559 727.00
84.6211 790.00
84.6863 790.00
84.7515 772.00
84.8167 814.00
84.8819 857.00
84.9471 835.00
85.0123 819.00
85.0775 933.00
85.1427 825.00
85.2079 877.00
85.2731 848.00
85.3383 862.00
85.4035 845.00
85.4687 831.00
85.5339 856.00
85.5991 775.00
85.6643 788.00
85.7295 793.00
85.7946 760.00
85.8598 765.00
85.925 826.00
85.9903 803.00
86.0554 813.00
86.1206 768.00
86.1858 779.00
86.251 770.00
86.3162 816.00
86.3814 826.00
86.4466 792.00
86.5118 757.00
86.577 742.00
86.6422 783.00
86.7074 739.00
86.7726 735.00
86.8378 771.00
86.903 778.00
86.9682 751.00
87.0334 796.00
87.0986 752.00
87.1638 792.00
87.229 754.00
87.2942 753.00
87.3594 726.00
87.4246 748.00
87.4898 743.00
87.555 724.00
87.6202 736.00
87.6854 742.00
87.7506 760.00
87.8158 739.00
87.881 746.00
87.9462 791.00
88.0114 740.00
88.0766 699.00
88.1418 745.00
88.207 777.00
88.2722 746.00
88.3374 759.00
88.4026 778.00
88.4678 750.00
88.533 780.00
88.5982 824.00
88.6634 893.00
88.7286 860.00
88.7938 1025.00
88.859 1027.00
88.9242 1132.00
88.9894 1130.00
89.0546 1076.00
89.1198 1117.00
89.185 1008.00
89.2502 1069.00
89.3154 1001.00
89.3806 956.00
89.4458 939.00
89.511 882.00
89.5762 861.00
89.6414 830.00
89.7066 848.00
89.7718 820.00
89.837 835.00
89.9022 798.00
89.9674 857.00
90.0326 849.00
90.0978 799.00
90.163 855.00
90.2282 894.00
90.2934 857.00
90.3586 920.00
90.4238 945.00
90.489 920.00
90.5542 989.00
90.6193 981.00
90.6845 974.00
90.7497 1087.00
90.8149 1023.00
90.8801 939.00
90.9453 855.00
91.0105 978.00
91.0757 850.00
91.1409 843.00
91.2061 801.00
91.2713 899.00
91.3365 904.00
91.4017 850.00
91.4669 864.00
91.5321 815.00
91.5973 848.00
91.6625 878.00
91.7277 863.00
91.7929 918.00
91.8581 832.00
91.9233 817.00
91.9885 897.00
92.0537 853.00
92.1189 843.00
92.1841 761.00
92.2493 799.00
92.3145 799.00
92.3797 809.00
92.4449 721.00
92.5101 809.00
92.5753 805.00
92.6405 719.00
92.7057 805.00
92.7709 802.00
92.8361 720.00
92.9013 805.00
92.9665 688.00
93.0317 771.00
93.0969 747.00
93.1621 818.00
93.2273 718.00
93.2925 764.00
93.3577 757.00
93.4229 776.00
93.4881 764.00
93.5533 723.00
93.6185 741.00
93.6837 747.00
93.7489 820.00
93.8141 769.00
93.8793 796.00
93.9445 793.00
94.0097 815.00
94.0749 811.00
94.1401 781.00
94.2053 812.00
94.2705 692.00
94.3357 811.00
94.4009 746.00
94.4661 843.00
94.5313 749.00
94.5965 764.00
94.6617 778.00
94.7269 777.00
94.7921 753.00
94.8573 803.00
94.9225 876.00
94.9877 817.00
95.0529 858.00
95.1181 796.00
95.1833 811.00
95.2485 802.00
95.3137 848.00
95.3789 915.00
95.444 882.00
95.5092 893.00
95.5744 982.00
95.6396 967.00
95.7048 1040.00
95.77 1091.00
95.8352 1132.00
95.9004 1132.00
95.9656 1159.00
96.0308 1138.00
96.096 1102.00
96.1612 1054.00
96.2264 1017.00
96.2916 989.00
96.3568 1000.00
96.422 963.00
96.4872 1021.00
96.5524 920.00
96.6176 1000.00
96.6828 964.00
96.748 953.00
96.8132 976.00
96.8784 1050.00
96.9436 996.00
97.0088 1057.00
97.074 1048.00
97.1392 939.00
97.2044 1013.00
97.2696 987.00
97.3348 998.00
97.4 1004.00
97.4652 895.00
97.5304 849.00
97.5956 872.00
97.6608 847.00
97.726 894.00
97.7912 804.00
97.8564 821.00
97.9216 867.00
97.9868 867.00
98.052 836.00
98.1172 856.00
98.1824 883.00
98.2476 848.00
98.3128 819.00
98.378 807.00
98.4432 780.00
98.5084 779.00
98.5736 796.00
98.6388 789.00
98.704 786.00
98.7692 827.00
98.8344 728.00
98.8996 818.00
98.9648 803.00
99.03 832.00
99.0952 817.00
99.1604 828.00
99.2256 810.00
99.2908 753.00
99.356 756.00
99.4212 855.00
99.4864 792.00
99.5516 824.00
99.6168 757.00
99.682 770.00
99.7472 790.00
99.8124 816.00
99.8776 759.00
99.9428 823.00
100.008 806.00
100.073 807.00
100.095 831.00