File: data/xrd_creation/results/PG_2252-1.xy
9.903433 2975.00
9.968632 2806.00
10.0338 2788.00
10.099 2697.00
10.1642 2834.00
10.2294 2767.00
10.2946 2720.00
10.3598 2658.00
10.425 2779.00
10.4902 2731.00
10.5554 2710.00
10.6206 2568.00
10.6858 2719.00
10.751 2637.00
10.8162 2579.00
10.8814 2594.00
10.9466 2624.00
11.0118 2570.00
11.077 2629.00
11.1422 2479.00
11.2074 2545.00
11.2726 2480.00
11.3378 2433.00
11.403 2570.00
11.4682 2535.00
11.5334 2528.00
11.5986 2468.00
11.6638 2515.00
11.729 2469.00
11.7942 2357.00
11.8594 2468.00
11.9246 2403.00
11.9898 2453.00
12.055 2455.00
12.1202 2345.00
12.1854 2288.00
12.2506 2335.00
12.3158 2279.00
12.381 2310.00
12.4462 2286.00
12.5114 2328.00
12.5766 2284.00
12.6418 2343.00
12.707 2285.00
12.7722 2324.00
12.8374 2347.00
12.9026 2422.00
12.9678 2357.00
13.033 2360.00
13.0982 2271.00
13.1634 2196.00
13.2286 2187.00
13.2938 2232.00
13.359 2213.00
13.4242 2216.00
13.4894 2256.00
13.5546 2301.00
13.6198 2326.00
13.685 2249.00
13.7502 2240.00
13.8154 2102.00
13.8805 2169.00
13.9457 2195.00
14.0109 2130.00
14.0761 2217.00
14.1413 2166.00
14.2065 2213.00
14.2717 2262.00
14.3369 2265.00
14.4021 2233.00
14.4673 2189.00
14.5325 2276.00
14.5977 2185.00
14.6629 2208.00
14.7281 2164.00
14.7933 2144.00
14.8585 2175.00
14.9237 2167.00
14.9889 2121.00
15.0541 2198.00
15.1193 2194.00
15.1845 2220.00
15.2497 2218.00
15.3149 2151.00
15.3801 2197.00
15.4453 2212.00
15.5105 2177.00
15.5757 2359.00
15.6409 2116.00
15.7061 2094.00
15.7713 2250.00
15.8365 2256.00
15.9017 2259.00
15.9669 2105.00
16.0321 2147.00
16.0973 2243.00
16.1625 2182.00
16.2277 2210.00
16.2929 2209.00
16.3581 2127.00
16.4233 2116.00
16.4885 2094.00
16.5537 2097.00
16.6189 2130.00
16.6841 2189.00
16.7493 2167.00
16.8145 2205.00
16.8797 2165.00
16.9449 2181.00
17.0101 2113.00
17.0753 2177.00
17.1405 2160.00
17.2057 2210.00
17.2709 2112.00
17.3361 2099.00
17.4013 2176.00
17.4665 2328.00
17.5317 2444.00
17.5969 2574.00
17.6621 2605.00
17.7273 2861.00
17.7925 2816.00
17.8577 2533.00
17.9229 2270.00
17.9881 2157.00
18.0533 2140.00
18.1185 2170.00
18.1837 2087.00
18.2489 2051.00
18.3141 2075.00
18.3793 2043.00
18.4445 2142.00
18.5097 2021.00
18.5749 2015.00
18.6401 1968.00
18.7052 2065.00
18.7704 2030.00
18.8356 2092.00
18.9008 2037.00
18.966 2010.00
19.0312 2091.00
19.0964 2005.00
19.1616 2056.00
19.2268 1995.00
19.292 1940.00
19.3572 1995.00
19.4224 2017.00
19.4876 2020.00
19.5528 1972.00
19.618 1995.00
19.6832 2031.00
19.7484 1948.00
19.8136 2037.00
19.8788 1948.00
19.944 1955.00
20.0092 1970.00
20.0744 1941.00
20.1396 2008.00
20.2048 1905.00
20.27 1987.00
20.3352 1944.00
20.4004 1879.00
20.4656 1945.00
20.5308 1997.00
20.596 1849.00
20.6612 1916.00
20.7264 1849.00
20.7916 1855.00
20.8568 1894.00
20.922 1837.00
20.9872 1959.00
21.0524 1983.00
21.1176 1944.00
21.1828 1909.00
21.248 1966.00
21.3132 1955.00
21.3784 1986.00
21.4436 2277.00
21.5088 2680.00
21.574 3261.00
21.6392 4225.00
21.7044 3309.00
21.7696 2119.00
21.8348 2020.00
21.9 1939.00
21.9652 1950.00
22.0304 1964.00
22.0956 1828.00
22.1608 1970.00
22.226 1825.00
22.2912 1970.00
22.3564 2016.00
22.4216 1938.00
22.4868 1885.00
22.552 1878.00
22.6172 1914.00
22.6824 1858.00
22.7476 1913.00
22.8128 1882.00
22.878 1810.00
22.9432 1861.00
23.0084 1853.00
23.0736 1895.00
23.1388 1881.00
23.204 1995.00
23.2692 1858.00
23.3344 1907.00
23.3996 1958.00
23.4647 1968.00
23.5299 2043.00
23.5951 2122.00
23.6603 2136.00
23.7255 2297.00
23.7907 2255.00
23.8559 2139.00
23.9211 2074.00
23.9863 2099.00
24.0515 2334.00
24.1167 2379.00
24.1819 2874.00
24.2471 3667.00
24.3123 4854.00
24.3775 5272.00
24.4427 4299.00
24.5079 3290.00
24.5731 3003.00
24.6383 3275.00
24.7035 3841.00
24.7687 4185.00
24.8339 3399.00
24.8991 2786.00
24.9643 2336.00
25.0295 2136.00
25.0947 2050.00
25.1599 1998.00
25.2251 1976.00
25.2903 2012.00
25.3555 1819.00
25.4207 1914.00
25.4859 1954.00
25.5511 1920.00
25.6163 1898.00
25.6815 1997.00
25.7467 2003.00
25.8119 1854.00
25.8771 1867.00
25.9423 1772.00
26.0075 1909.00
26.0727 1871.00
26.1379 1876.00
26.2031 1871.00
26.2683 1756.00
26.3335 1909.00
26.3987 1801.00
26.4639 1938.00
26.5291 1797.00
26.5943 1844.00
26.6595 1767.00
26.7247 1856.00
26.7899 1792.00
26.8551 1877.00
26.9203 1837.00
26.9855 1852.00
27.0507 1912.00
27.1159 1780.00
27.1811 1724.00
27.2463 1890.00
27.3115 1875.00
27.3767 1879.00
27.4419 1917.00
27.5071 2019.00
27.5723 2009.00
27.6375 2094.00
27.7027 2109.00
27.7679 2177.00
27.8331 2132.00
27.8983 2391.00
27.9635 2547.00
28.0287 2542.00
28.0939 2982.00
28.1591 3549.00
28.2243 4744.00
28.2894 6919.00
28.3546 11118.00
28.4198 17906.00
28.485 23846.00
28.5502 18939.00
28.6154 10629.00
28.6806 6101.00
28.7458 4195.00
28.811 3582.00
28.8762 2973.00
28.9414 2649.00
29.0066 2443.00
29.0718 2250.00
29.137 2256.00
29.2022 2194.00
29.2674 2172.00
29.3326 2099.00
29.3978 2062.00
29.463 2067.00
29.5282 2044.00
29.5934 2071.00
29.6586 2270.00
29.7238 2482.00
29.789 2579.00
29.8542 2314.00
29.9194 2123.00
29.9846 2002.00
30.0498 1934.00
30.115 1840.00
30.1802 1991.00
30.2454 1948.00
30.3106 1879.00
30.3758 2025.00
30.441 1998.00
30.5062 2090.00
30.5714 2025.00
30.6366 2235.00
30.7018 2200.00
30.767 2630.00
30.8322 3261.00
30.8974 4017.00
30.9626 3661.00
31.0278 2945.00
31.093 2333.00
31.1582 2332.00
31.2234 2479.00
31.2886 2588.00
31.3538 2830.00
31.419 3006.00
31.4842 3678.00
31.5494 4772.00
31.6146 6862.00
31.6798 10771.00
31.745 15949.00
31.8102 15947.00
31.8754 10954.00
31.9406 6802.00
32.0058 5529.00
32.071 5888.00
32.1362 4853.00
32.2014 3577.00
32.2666 2533.00
32.3318 2256.00
32.397 2067.00
32.4622 1996.00
32.5274 1869.00
32.5926 1904.00
32.6578 1798.00
32.723 1889.00
32.7882 1804.00
32.8534 1793.00
32.9186 1711.00
32.9838 1706.00
33.0489 1751.00
33.1141 1695.00
33.1793 1789.00
33.2445 1763.00
33.3097 1791.00
33.3749 1774.00
33.4401 1741.00
33.5053 1764.00
33.5705 1814.00
33.6357 1786.00
33.7009 1843.00
33.7661 1771.00
33.8313 1779.00
33.8965 1773.00
33.9617 1853.00
34.0269 1980.00
34.0921 2079.00
34.1573 2259.00
34.2225 2688.00
34.2877 3390.00
34.3529 4849.00
34.4181 6896.00
34.4833 7275.00
34.5485 5886.00
34.6137 4810.00
34.6789 5159.00
34.7441 4693.00
34.8093 3688.00
34.8745 2890.00
34.9397 2369.00
35.0049 2128.00
35.0701 2166.00
35.1353 2017.00
35.2005 2137.00
35.2657 2085.00
35.3309 2256.00
35.3961 2420.00
35.4613 3222.00
35.5265 3970.00
35.5917 4848.00
35.6569 4612.00
35.7221 3381.00
35.7873 2583.00
35.8525 1962.00
35.9177 2042.00
35.9829 2028.00
36.0481 2022.00
36.1133 2159.00
36.1785 2345.00
36.2437 2340.00
36.3089 2449.00
36.3741 2830.00
36.4393 2147.00
36.5045 1931.00
36.5697 1745.00
36.6349 1737.00
36.7001 1603.00
36.7653 1690.00
36.8305 1647.00
36.8957 1634.00
36.9609 1594.00
37.0261 1698.00
37.0913 1801.00
37.1565 2044.00
37.2217 2478.00
37.2869 2729.00
37.3521 2274.00
37.4173 1855.00
37.4825 1643.00
37.5477 1611.00
37.6129 1646.00
37.6781 1491.00
37.7433 1609.00
37.8085 1664.00
37.8736 1550.00
37.9388 1590.00
38.004 1628.00
38.0692 1525.00
38.1344 1565.00
38.1996 1609.00
38.2648 1611.00
38.33 1584.00
38.3952 1593.00
38.4604 1639.00
38.5256 1694.00
38.5908 1665.00
38.656 1905.00
38.7212 2049.00
38.7864 2475.00
38.8516 2759.00
38.9168 2660.00
38.982 2277.00
39.0472 1896.00
39.1124 1884.00
39.1776 1652.00
39.2428 1676.00
39.308 1610.00
39.3732 1574.00
39.4384 1619.00
39.5036 1647.00
39.5688 1721.00
39.634 1652.00
39.6992 1901.00
39.7644 1959.00
39.8296 2261.00
39.8948 2187.00
39.96 1985.00
40.0252 1837.00
40.0904 1753.00
40.1556 1814.00
40.2208 2046.00
40.286 1939.00
40.3512 1887.00
40.4164 1742.00
40.4816 1655.00
40.5468 1697.00
40.612 1791.00
40.6772 1785.00
40.7424 1935.00
40.8076 2135.00
40.8728 2593.00
40.938 3379.00
41.0032 4250.00
41.0684 4207.00
41.1336 3485.00
41.1988 2698.00
41.264 2436.00
41.3292 2418.00
41.3944 2695.00
41.4596 3063.00
41.5248 2810.00
41.59 2715.00
41.6552 2922.00
41.7204 2645.00
41.7856 2404.00
41.8508 2028.00
41.916 1793.00
41.9812 1723.00
42.0464 1671.00
42.1116 1595.00
42.1768 1581.00
42.242 1511.00
42.3072 1537.00
42.3724 1514.00
42.4376 1505.00
42.5028 1525.00
42.568 1550.00
42.6332 1553.00
42.6983 1485.00
42.7635 1463.00
42.8287 1509.00
42.8939 1626.00
42.9591 1660.00
43.0243 1655.00
43.0895 1492.00
43.1547 1586.00
43.2199 1585.00
43.2851 1534.00
43.3503 1451.00
43.4155 1478.00
43.4807 1493.00
43.5459 1468.00
43.6111 1458.00
43.6763 1604.00
43.7415 1759.00
43.8067 1667.00
43.8719 1533.00
43.9371 1454.00
44.0023 1547.00
44.0675 1528.00
44.1327 1503.00
44.1979 1543.00
44.2631 1521.00
44.3283 1544.00
44.3935 1528.00
44.4587 1491.00
44.5239 1543.00
44.5891 1649.00
44.6543 1632.00
44.7195 1597.00
44.7847 1674.00
44.8499 1684.00
44.9151 1883.00
44.9803 2113.00
45.0455 2572.00
45.1107 3106.00
45.1759 2818.00
45.2411 2586.00
45.3063 2172.00
45.3715 1956.00
45.4367 1856.00
45.5019 1843.00
45.5671 1816.00
45.6323 2012.00
45.6975 2273.00
45.7627 2665.00
45.8279 2870.00
45.8931 2616.00
45.9583 2222.00
46.0235 1870.00
46.0887 1762.00
46.1539 1628.00
46.2191 1595.00
46.2843 1542.00
46.3495 1586.00
46.4147 1512.00
46.4799 1528.00
46.5451 1485.00
46.6103 1414.00
46.6755 1470.00
46.7407 1436.00
46.8059 1493.00
46.8711 1459.00
46.9363 1438.00
47.0015 1513.00
47.0667 1518.00
47.1319 1430.00
47.1971 1448.00
47.2623 1496.00
47.3275 1515.00
47.3927 1450.00
47.4579 1450.00
47.523 1404.00
47.5882 1469.00
47.6534 1480.00
47.7186 1447.00
47.7838 1548.00
47.849 1540.00
47.9142 1364.00
47.9794 1494.00
48.0446 1530.00
48.1098 1516.00
48.175 1509.00
48.2402 1464.00
48.3054 1554.00
48.3706 1479.00
48.4358 1527.00
48.501 1483.00
48.5662 1461.00
48.6314 1623.00
48.6966 1566.00
48.7618 1633.00
48.827 1629.00
48.8922 1831.00
48.9574 2026.00
49.0226 2089.00
49.0878 2232.00
49.153 2375.00
49.2182 2455.00
49.2834 2400.00
49.3486 2674.00
49.4138 3106.00
49.479 4524.00
49.5442 5658.00
49.6094 4958.00
49.6746 4330.00
49.7398 3261.00
49.805 2646.00
49.8702 2274.00
49.9354 2183.00
50.0006 2093.00
50.0658 2256.00
50.131 2450.00
50.1962 2773.00
50.2614 3480.00
50.3266 5192.00
50.3918 6980.00
50.457 6229.00
50.5222 5464.00
50.5874 4265.00
50.6526 3404.00
50.7178 3301.00
50.783 3919.00
50.8482 4624.00
50.9134 3971.00
50.9786 3423.00
51.0438 2938.00
51.109 2316.00
51.1742 2098.00
51.2394 1989.00
51.3046 2060.00
51.3698 2272.00
51.435 2740.00
51.5002 2739.00
51.5654 2503.00
51.6306 2338.00
51.6958 1999.00
51.761 1749.00
51.8262 1674.00
51.8914 1552.00
51.9566 1571.00
52.0218 1500.00
52.087 1504.00
52.1522 1477.00
52.2174 1485.00
52.2826 1550.00
52.3477 1465.00
52.4129 1467.00
52.4781 1637.00
52.5433 1500.00
52.6085 1515.00
52.6737 1456.00
52.7389 1473.00
52.8041 1486.00
52.8693 1544.00
52.9345 1521.00
52.9997 1549.00
53.0649 1567.00
53.1301 1440.00
53.1953 1439.00
53.2605 1464.00
53.3257 1482.00
53.3909 1479.00
53.4561 1535.00
53.5213 1519.00
53.5865 1514.00
53.6517 1546.00
53.7169 1529.00
53.7821 1615.00
53.8473 1582.00
53.9125 1663.00
53.9777 1715.00
54.0429 1793.00
54.1081 2038.00
54.1733 2118.00
54.2385 2656.00
54.3037 3245.00
54.3689 3982.00
54.4341 3732.00
54.4993 3107.00
54.5645 2798.00
54.6297 2156.00
54.6949 1971.00
54.7601 1895.00
54.8253 1793.00
54.8905 1836.00
54.9557 1697.00
55.0209 1773.00
55.0861 1759.00
55.1513 1733.00
55.2165 1855.00
55.2817 1865.00
55.3469 1969.00
55.4121 2305.00
55.4773 2679.00
55.5425 3216.00
55.6077 4066.00
55.6729 4267.00
55.7381 4096.00
55.8033 3916.00
55.8685 4029.00
55.9337 3416.00
55.9989 3103.00
56.0641 3261.00
56.1293 3305.00
56.1945 3285.00
56.2597 2874.00
56.3249 2698.00
56.3901 2280.00
56.4553 2126.00
56.5205 1885.00
56.5857 1766.00
56.6509 1819.00
56.7161 1675.00
56.7813 1620.00
56.8465 1561.00
56.9117 1633.00
56.9769 1697.00
57.042 1852.00
57.1073 1802.00
57.1724 1915.00
57.2376 2035.00
57.3028 2052.00
57.368 2591.00
57.4332 3081.00
57.4984 2936.00
57.5636 2621.00
57.6288 2370.00
57.694 2171.00
57.7592 1961.00
57.8244 1881.00
57.8896 1887.00
57.9548 1997.00
58.02 2230.00
58.0852 2546.00
58.1504 2654.00
58.2156 2532.00
58.2808 2396.00
58.346 2359.00
58.4112 2142.00
58.4764 2355.00
58.5416 2448.00
58.6068 2347.00
58.672 2147.00
58.7372 2061.00
58.8024 1839.00
58.8676 1711.00
58.9328 1703.00
58.998 1717.00
59.0632 1752.00
59.1284 1738.00
59.1936 1808.00
59.2588 1743.00
59.324 1683.00
59.3892 1629.00
59.4544 1634.00
59.5196 1601.00
59.5848 1671.00
59.65 1736.00
59.7152 1756.00
59.7804 1888.00
59.8456 2036.00
59.9108 2433.00
59.976 3011.00
60.0412 3770.00
60.1064 3456.00
60.1716 3505.00
60.2368 3536.00
60.302 3431.00
60.3672 2979.00
60.4324 2695.00
60.4976 2411.00
60.5628 2206.00
60.628 1767.00
60.6932 1880.00
60.7584 1796.00
60.8236 1690.00
60.8888 1668.00
60.954 1565.00
61.0192 1617.00
61.0844 1625.00
61.1496 1626.00
61.2148 1697.00
61.28 1685.00
61.3452 1868.00
61.4104 1971.00
61.4756 2075.00
61.5408 2355.00
61.606 2814.00
61.6712 2661.00
61.7364 2434.00
61.8016 2397.00
61.8667 2132.00
61.932 2062.00
61.9971 1997.00
62.0623 2022.00
62.1275 2394.00
62.1927 2620.00
62.2579 2821.00
62.3231 2527.00
62.3883 2459.00
62.4535 2252.00
62.5187 1990.00
62.5839 1875.00
62.6491 1714.00
62.7143 1820.00
62.7795 1803.00
62.8447 1964.00
62.9099 2123.00
62.9751 2420.00
63.0403 2866.00
63.1055 3421.00
63.1707 3107.00
63.2359 2793.00
63.3011 2656.00
63.3663 2183.00
63.4315 1941.00
63.4967 1736.00
63.5619 1659.00
63.6271 1658.00
63.6923 1588.00
63.7575 1550.00
63.8227 1644.00
63.8879 1619.00
63.9531 1588.00
64.0183 1569.00
64.0835 1538.00
64.1487 1554.00
64.2139 1609.00
64.2791 1660.00
64.3443 1793.00
64.4095 1817.00
64.4747 2044.00
64.5399 2110.00
64.6051 1930.00
64.6703 1817.00
64.7355 1834.00
64.8007 1710.00
64.8659 1563.00
64.9311 1450.00
64.9963 1556.00
65.0615 1611.00
65.1267 1533.00
65.1919 1687.00
65.2571 1590.00
65.3223 1651.00
65.3875 1717.00
65.4527 1708.00
65.5179 1809.00
65.5831 2052.00
65.6483 2143.00
65.7135 2320.00
65.7787 2229.00
65.8439 2418.00
65.9091 2715.00
65.9743 2921.00
66.0395 2658.00
66.1047 2445.00
66.1699 2405.00
66.2351 2101.00
66.3003 1818.00
66.3655 1738.00
66.4307 1577.00
66.4959 1566.00
66.561 1447.00
66.6263 1507.00
66.6915 1386.00
66.7566 1403.00
66.8218 1414.00
66.887 1368.00
66.9522 1425.00
67.0174 1423.00
67.0826 1345.00
67.1478 1376.00
67.213 1374.00
67.2782 1478.00
67.3434 1403.00
67.4086 1463.00
67.4738 1387.00
67.539 1366.00
67.6042 1405.00
67.6694 1385.00
67.7346 1354.00
67.7998 1362.00
67.865 1389.00
67.9302 1319.00
67.9954 1373.00
68.0606 1325.00
68.1258 1362.00
68.191 1380.00
68.2562 1373.00
68.3214 1423.00
68.3866 1395.00
68.4518 1381.00
68.517 1299.00
68.5822 1385.00
68.6474 1381.00
68.7126 1377.00
68.7778 1397.00
68.843 1448.00
68.9082 1439.00
68.9734 1458.00
69.0386 1672.00
69.1038 1626.00
69.169 1707.00
69.2342 1744.00
69.2994 1614.00
69.3646 1662.00
69.4298 1607.00
69.495 1548.00
69.5602 1491.00
69.6254 1424.00
69.6906 1447.00
69.7558 1521.00
69.821 1509.00
69.8862 1490.00
69.9514 1548.00
70.0166 1494.00
70.0818 1466.00
70.147 1449.00
70.2122 1527.00
70.2774 1403.00
70.3426 1492.00
70.4078 1446.00
70.473 1490.00
70.5382 1524.00
70.6034 1464.00
70.6686 1488.00
70.7338 1447.00
70.799 1453.00
70.8642 1366.00
70.9294 1496.00
70.9946 1470.00
71.0598 1532.00
71.125 1631.00
71.1902 1708.00
71.2554 1886.00
71.3205 2029.00
71.3858 2018.00
71.451 2137.00
71.5162 2315.00
71.5813 2234.00
71.6465 2044.00
71.7117 1927.00
71.7769 1831.00
71.8421 1713.00
71.9073 1616.00
71.9725 1480.00
72.0377 1529.00
72.1029 1621.00
72.1681 1564.00
72.2333 1695.00
72.2985 1871.00
72.3637 1796.00
72.4289 1693.00
72.4941 1646.00
72.5593 1671.00
72.6245 1631.00
72.6897 1629.00
72.7549 1794.00
72.8201 1648.00
72.8853 1699.00
72.9505 1737.00
73.0157 1545.00
73.0809 1569.00
73.1461 1502.00
73.2113 1488.00
73.2765 1437.00
73.3417 1502.00
73.4069 1399.00
73.4721 1411.00
73.5373 1320.00
73.6025 1358.00
73.6677 1369.00
73.7329 1445.00
73.7981 1505.00
73.8633 1411.00
73.9285 1431.00
73.9937 1543.00
74.0589 1474.00
74.1241 1466.00
74.1893 1441.00
74.2545 1538.00
74.3197 1405.00
74.3849 1565.00
74.4501 1442.00
74.5153 1437.00
74.5805 1439.00
74.6457 1487.00
74.7109 1434.00
74.7761 1593.00
74.8413 1620.00
74.9065 1770.00
74.9717 1818.00
75.0369 1727.00
75.1021 1854.00
75.1673 1971.00
75.2325 2066.00
75.2977 2227.00
75.3629 2116.00
75.4281 2069.00
75.4933 2037.00
75.5585 1945.00
75.6237 1830.00
75.6889 1643.00
75.7541 1575.00
75.8193 1508.00
75.8845 1453.00
75.9497 1532.00
76.0149 1450.00
76.0801 1396.00
76.1452 1435.00
76.2104 1411.00
76.2756 1480.00
76.3409 1496.00
76.406 1485.00
76.4712 1496.00
76.5364 1496.00
76.6016 1590.00
76.6668 1887.00
76.732 1703.00
76.7972 1610.00
76.8624 1709.00
76.9276 1553.00
76.9928 1514.00
77.058 1432.00
77.1232 1491.00
77.1884 1520.00
77.2536 1502.00
77.3188 1488.00
77.384 1480.00
77.4492 1538.00
77.5144 1497.00
77.5796 1585.00
77.6448 1654.00
77.71 1610.00
77.7752 1617.00
77.8404 1618.00
77.9056 1635.00
77.9708 1494.00
78.036 1498.00
78.1012 1512.00
78.1664 1507.00
78.2316 1620.00
78.2968 1538.00
78.362 1528.00
78.4272 1492.00
78.4924 1421.00
78.5576 1530.00
78.6228 1505.00
78.688 1615.00
78.7532 1493.00
78.8184 1529.00
78.8836 1622.00
78.9488 1528.00
79.014 1625.00
79.0792 1772.00
79.1444 1856.00
79.2096 1690.00
79.2748 1590.00
79.34 1588.00
79.4052 1564.00
79.4704 1595.00
79.5356 1388.00
79.6008 1388.00
79.666 1410.00
79.7312 1391.00
79.7964 1291.00
79.8616 1354.00
79.9268 1356.00
79.992 1421.00
80.0572 1374.00
80.1224 1375.00
80.1876 1382.00
80.2528 1360.00
80.318 1406.00
80.3832 1425.00
80.4484 1385.00
80.5136 1491.00
80.5788 1482.00
80.644 1374.00
80.7092 1452.00
80.7744 1431.00
80.8396 1499.00
80.9048 1353.00
80.9699 1391.00
81.0351 1376.00
81.1003 1334.00
81.1655 1310.00
81.2307 1482.00
81.2959 1517.00
81.3611 1528.00
81.4263 1491.00
81.4915 1481.00
81.5567 1561.00
81.6219 1500.00
81.6871 1557.00
81.7523 1669.00
81.8175 1739.00
81.8827 1617.00
81.9479 1604.00
82.0131 1659.00
82.0783 1565.00
82.1435 1520.00
82.2087 1556.00
82.2739 1457.00
82.3391 1506.00
82.4043 1478.00
82.4695 1619.00
82.5347 1552.00
82.5999 1580.00
82.6651 1676.00
82.7303 1682.00
82.7955 1952.00
82.8607 1825.00
82.9259 1747.00
82.9911 1663.00
83.0563 1786.00
83.1215 1743.00
83.1867 1816.00
83.2519 1856.00
83.3171 1956.00
83.3823 1938.00
83.4475 1780.00
83.5127 1863.00
83.5779 1812.00
83.6431 1843.00
83.7083 1616.00
83.7735 1661.00
83.8387 1618.00
83.9039 1713.00
83.9691 1731.00
84.0343 1671.00
84.0995 1841.00
84.1647 1847.00
84.2299 1785.00
84.2951 1788.00
84.3603 1973.00
84.4255 1856.00
84.4907 1639.00
84.5559 1639.00
84.6211 1671.00
84.6863 1563.00
84.7515 1582.00
84.8167 1575.00
84.8819 1547.00
84.9471 1590.00
85.0123 1540.00
85.0775 1772.00
85.1427 1672.00
85.2079 1585.00
85.2731 1549.00
85.3383 1556.00
85.4035 1615.00
85.4687 1501.00
85.5339 1451.00
85.5991 1431.00
85.6643 1460.00
85.7295 1343.00
85.7946 1419.00
85.8598 1392.00
85.925 1450.00
85.9903 1511.00
86.0554 1478.00
86.1206 1443.00
86.1858 1466.00
86.251 1530.00
86.3162 1564.00
86.3814 1735.00
86.4466 1634.00
86.5118 1653.00
86.577 1473.00
86.6422 1498.00
86.7074 1499.00
86.7726 1535.00
86.8378 1496.00
86.903 1429.00
86.9682 1524.00
87.0334 1513.00
87.0986 1435.00
87.1638 1494.00
87.229 1542.00
87.2942 1408.00
87.3594 1487.00
87.4246 1508.00
87.4898 1521.00
87.555 1613.00
87.6202 1669.00
87.6854 1737.00
87.7506 1589.00
87.8158 1669.00
87.881 1624.00
87.9462 1650.00
88.0114 1542.00
88.0766 1526.00
88.1418 1556.00
88.207 1664.00
88.2722 1752.00
88.3374 1793.00
88.4026 1867.00
88.4678 1863.00
88.533 1843.00
88.5982 1861.00
88.6634 1957.00
88.7286 2074.00
88.7938 2086.00
88.859 1862.00
88.9242 1797.00
88.9894 1812.00
89.0546 1652.00
89.1198 1589.00
89.185 1537.00
89.2502 1532.00
89.3154 1495.00
89.3806 1554.00
89.4458 1569.00
89.511 1603.00
89.5762 1669.00
89.6414 1617.00
89.7066 1592.00
89.7718 1654.00
89.837 1648.00
89.9022 1714.00
89.9674 1896.00
90.0326 2003.00
90.0978 1830.00
90.163 1726.00
90.2282 1815.00
90.2934 1643.00
90.3586 1633.00
90.4238 1578.00
90.489 1609.00
90.5542 1493.00
90.6193 1492.00
90.6845 1500.00
90.7497 1442.00
90.8149 1505.00
90.8801 1502.00
90.9453 1443.00
91.0105 1393.00
91.0757 1470.00
91.1409 1451.00
91.2061 1472.00
91.2713 1419.00
91.3365 1538.00
91.4017 1486.00
91.4669 1472.00
91.5321 1518.00
91.5973 1421.00
91.6625 1489.00
91.7277 1516.00
91.7929 1440.00
91.8581 1365.00
91.9233 1362.00
91.9885 1378.00
92.0537 1351.00
92.1189 1412.00
92.1841 1454.00
92.2493 1349.00
92.3145 1376.00
92.3797 1362.00
92.4449 1360.00
92.5101 1371.00
92.5753 1470.00
92.6405 1353.00
92.7057 1387.00
92.7709 1338.00
92.8361 1301.00
92.9013 1340.00
92.9665 1379.00
93.0317 1320.00
93.0969 1440.00
93.1621 1390.00
93.2273 1357.00
93.2925 1436.00
93.3577 1378.00
93.4229 1458.00
93.4881 1401.00
93.5533 1426.00
93.6185 1514.00
93.6837 1433.00
93.7489 1479.00
93.8141 1516.00
93.8793 1672.00
93.9445 1611.00
94.0097 1715.00
94.0749 1557.00
94.1401 1627.00
94.2053 1537.00
94.2705 1556.00
94.3357 1502.00
94.4009 1547.00
94.4661 1466.00
94.5313 1494.00
94.5965 1486.00
94.6617 1379.00
94.7269 1459.00
94.7921 1465.00
94.8573 1529.00
94.9225 1572.00
94.9877 1631.00
95.0529 1621.00
95.1181 1610.00
95.1833 1715.00
95.2485 1770.00
95.3137 1799.00
95.3789 1757.00
95.444 1679.00
95.5092 1646.00
95.5744 1709.00
95.6396 1649.00
95.7048 1630.00
95.77 1585.00
95.8352 1465.00
95.9004 1455.00
95.9656 1583.00
96.0308 1554.00
96.096 1590.00
96.1612 1623.00
96.2264 1594.00
96.2916 1700.00
96.3568 1917.00
96.422 1889.00
96.4872 1779.00
96.5524 1853.00
96.6176 1963.00
96.6828 2099.00
96.748 2090.00
96.8132 2021.00
96.8784 1975.00
96.9436 1960.00
97.0088 1985.00
97.074 2006.00
97.1392 1961.00
97.2044 1992.00
97.2696 1857.00
97.3348 1734.00
97.4 1655.00
97.4652 1671.00
97.5304 1640.00
97.5956 1724.00
97.6608 1539.00
97.726 1469.00
97.7912 1578.00
97.8564 1479.00
97.9216 1508.00
97.9868 1501.00
98.052 1606.00
98.1172 1653.00
98.1824 1714.00
98.2476 1693.00
98.3128 1581.00
98.378 1599.00
98.4432 1561.00
98.5084 1673.00
98.5736 1521.00
98.6388 1632.00
98.704 1631.00
98.7692 1702.00
98.8344 1702.00
98.8996 1679.00
98.9648 1784.00
99.03 1709.00
99.0952 1707.00
99.1604 1766.00
99.2256 1732.00
99.2908 1711.00
99.356 1745.00
99.4212 1771.00
99.4864 1844.00
99.5516 1961.00
99.6168 1972.00
99.682 1917.00
99.7472 1895.00
99.8124 1779.00
99.8776 1698.00
99.9428 1891.00
100.008 1771.00
100.073 1641.00
100.095 1722.00