File: data/xrd_creation/results/PG_2047-1.xy
9.903433 2742.00
9.968632 2673.00
10.0338 2675.00
10.099 2637.00
10.1642 2632.00
10.2294 2559.00
10.2946 2552.00
10.3598 2551.00
10.425 2463.00
10.4902 2442.00
10.5554 2475.00
10.6206 2415.00
10.6858 2413.00
10.751 2360.00
10.8162 2470.00
10.8814 2388.00
10.9466 2295.00
11.0118 2360.00
11.077 2269.00
11.1422 2315.00
11.2074 2264.00
11.2726 2260.00
11.3378 2268.00
11.403 2325.00
11.4682 2297.00
11.5334 2264.00
11.5986 2132.00
11.6638 2164.00
11.729 2257.00
11.7942 2227.00
11.8594 2184.00
11.9246 2083.00
11.9898 2150.00
12.055 2024.00
12.1202 2100.00
12.1854 2129.00
12.2506 2043.00
12.3158 2063.00
12.381 2110.00
12.4462 2042.00
12.5114 1971.00
12.5766 2018.00
12.6418 2015.00
12.707 1891.00
12.7722 1943.00
12.8374 1974.00
12.9026 2016.00
12.9678 1916.00
13.033 1945.00
13.0982 1969.00
13.1634 1874.00
13.2286 1922.00
13.2938 1903.00
13.359 1937.00
13.4242 1800.00
13.4894 1928.00
13.5546 1870.00
13.6198 1842.00
13.685 1863.00
13.7502 1815.00
13.8154 1744.00
13.8805 1798.00
13.9457 1733.00
14.0109 1786.00
14.0761 1729.00
14.1413 1758.00
14.2065 1766.00
14.2717 1661.00
14.3369 1609.00
14.4021 1765.00
14.4673 1758.00
14.5325 1794.00
14.5977 1678.00
14.6629 1702.00
14.7281 1655.00
14.7933 1711.00
14.8585 1769.00
14.9237 1659.00
14.9889 1681.00
15.0541 1739.00
15.1193 1594.00
15.1845 1679.00
15.2497 1668.00
15.3149 1685.00
15.3801 1638.00
15.4453 1617.00
15.5105 1591.00
15.5757 1641.00
15.6409 1616.00
15.7061 1638.00
15.7713 1559.00
15.8365 1649.00
15.9017 1544.00
15.9669 1614.00
16.0321 1599.00
16.0973 1588.00
16.1625 1557.00
16.2277 1594.00
16.2929 1514.00
16.3581 1595.00
16.4233 1560.00
16.4885 1528.00
16.5537 1504.00
16.6189 1446.00
16.6841 1525.00
16.7493 1573.00
16.8145 1487.00
16.8797 1479.00
16.9449 1473.00
17.0101 1469.00
17.0753 1498.00
17.1405 1506.00
17.2057 1525.00
17.2709 1463.00
17.3361 1566.00
17.4013 1555.00
17.4665 1633.00
17.5317 1895.00
17.5969 2250.00
17.6621 3036.00
17.7273 3773.00
17.7925 2543.00
17.8577 1553.00
17.9229 1487.00
17.9881 1413.00
18.0533 1448.00
18.1185 1394.00
18.1837 1370.00
18.2489 1353.00
18.3141 1357.00
18.3793 1376.00
18.4445 1335.00
18.5097 1330.00
18.5749 1381.00
18.6401 1228.00
18.7052 1428.00
18.7704 1327.00
18.8356 1283.00
18.9008 1323.00
18.966 1349.00
19.0312 1302.00
19.0964 1304.00
19.1616 1321.00
19.2268 1246.00
19.292 1331.00
19.3572 1236.00
19.4224 1286.00
19.4876 1278.00
19.5528 1316.00
19.618 1271.00
19.6832 1305.00
19.7484 1234.00
19.8136 1223.00
19.8788 1216.00
19.944 1221.00
20.0092 1261.00
20.0744 1238.00
20.1396 1227.00
20.2048 1229.00
20.27 1233.00
20.3352 1210.00
20.4004 1204.00
20.4656 1184.00
20.5308 1124.00
20.596 1154.00
20.6612 1169.00
20.7264 1165.00
20.7916 1137.00
20.8568 1188.00
20.922 1115.00
20.9872 1197.00
21.0524 1144.00
21.1176 1166.00
21.1828 1170.00
21.248 1145.00
21.3132 1144.00
21.3784 1158.00
21.4436 1142.00
21.5088 1150.00
21.574 1119.00
21.6392 1114.00
21.7044 1120.00
21.7696 1235.00
21.8348 1130.00
21.9 1045.00
21.9652 1190.00
22.0304 1071.00
22.0956 1074.00
22.1608 1069.00
22.226 1127.00
22.2912 1101.00
22.3564 1094.00
22.4216 1027.00
22.4868 1098.00
22.552 1119.00
22.6172 1015.00
22.6824 1075.00
22.7476 1046.00
22.8128 1010.00
22.878 1020.00
22.9432 1020.00
23.0084 1065.00
23.0736 990.00
23.1388 1022.00
23.204 1032.00
23.2692 1043.00
23.3344 1093.00
23.3996 1073.00
23.4647 1111.00
23.5299 1127.00
23.5951 1223.00
23.6603 1191.00
23.7255 1218.00
23.7907 1322.00
23.8559 1345.00
23.9211 1727.00
23.9863 2826.00
24.0515 5466.00
24.1167 10622.00
24.1819 16720.00
24.2471 9218.00
24.3123 2668.00
24.3775 1672.00
24.4427 1835.00
24.5079 2571.00
24.5731 3921.00
24.6383 5014.00
24.7035 3349.00
24.7687 1636.00
24.8339 1208.00
24.8991 1095.00
24.9643 1139.00
25.0295 1068.00
25.0947 1046.00
25.1599 1028.00
25.2251 1017.00
25.2903 966.00
25.3555 1043.00
25.4207 988.00
25.4859 1008.00
25.5511 998.00
25.6163 1007.00
25.6815 1004.00
25.7467 966.00
25.8119 1013.00
25.8771 968.00
25.9423 1030.00
26.0075 896.00
26.0727 929.00
26.1379 950.00
26.2031 980.00
26.2683 936.00
26.3335 957.00
26.3987 965.00
26.4639 943.00
26.5291 953.00
26.5943 941.00
26.6595 956.00
26.7247 969.00
26.7899 885.00
26.8551 930.00
26.9203 947.00
26.9855 915.00
27.0507 917.00
27.1159 916.00
27.1811 957.00
27.2463 907.00
27.3115 931.00
27.3767 949.00
27.4419 906.00
27.5071 948.00
27.5723 894.00
27.6375 867.00
27.7027 853.00
27.7679 854.00
27.8331 940.00
27.8983 934.00
27.9635 882.00
28.0287 899.00
28.0939 855.00
28.1591 855.00
28.2243 853.00
28.2894 890.00
28.3546 848.00
28.4198 902.00
28.485 804.00
28.5502 892.00
28.6154 854.00
28.6806 810.00
28.7458 819.00
28.811 874.00
28.8762 888.00
28.9414 843.00
29.0066 840.00
29.0718 783.00
29.137 805.00
29.2022 848.00
29.2674 859.00
29.3326 819.00
29.3978 851.00
29.463 818.00
29.5282 877.00
29.5934 836.00
29.6586 842.00
29.7238 847.00
29.789 967.00
29.8542 1154.00
29.9194 1683.00
29.9846 2626.00
30.0498 2033.00
30.115 1303.00
30.1802 963.00
30.2454 906.00
30.3106 861.00
30.3758 873.00
30.441 886.00
30.5062 909.00
30.5714 978.00
30.6366 1007.00
30.7018 979.00
30.767 1174.00
30.8322 1673.00
30.8974 3492.00
30.9626 7845.00
31.0278 14775.00
31.093 8910.00
31.1582 3676.00
31.2234 1289.00
31.2886 1101.00
31.3538 954.00
31.419 867.00
31.4842 864.00
31.5494 869.00
31.6146 833.00
31.6798 802.00
31.745 772.00
31.8102 757.00
31.8754 749.00
31.9406 746.00
32.0058 746.00
32.071 695.00
32.1362 708.00
32.2014 743.00
32.2666 794.00
32.3318 718.00
32.397 744.00
32.4622 712.00
32.5274 774.00
32.5926 757.00
32.6578 797.00
32.723 745.00
32.7882 776.00
32.8534 847.00
32.9186 861.00
32.9838 820.00
33.0489 889.00
33.1141 1197.00
33.1793 1997.00
33.2445 4009.00
33.3097 6253.00
33.3749 4545.00
33.4401 2329.00
33.5053 1200.00
33.5705 871.00
33.6357 822.00
33.7009 807.00
33.7661 779.00
33.8313 755.00
33.8965 746.00
33.9617 796.00
34.0269 789.00
34.0921 843.00
34.1573 1150.00
34.2225 2216.00
34.2877 3972.00
34.3529 2986.00
34.4181 1935.00
34.4833 915.00
34.5485 734.00
34.6137 674.00
34.6789 712.00
34.7441 673.00
34.8093 670.00
34.8745 654.00
34.9397 685.00
35.0049 649.00
35.0701 661.00
35.1353 671.00
35.2005 661.00
35.2657 658.00
35.3309 738.00
35.3961 842.00
35.4613 1222.00
35.5265 1844.00
35.5917 1195.00
35.6569 940.00
35.7221 704.00
35.7873 674.00
35.8525 631.00
35.9177 630.00
35.9829 695.00
36.0481 664.00
36.1133 665.00
36.1785 683.00
36.2437 803.00
36.3089 823.00
36.3741 1099.00
36.4393 1924.00
36.5045 3973.00
36.5697 4862.00
36.6349 3137.00
36.7001 1701.00
36.7653 849.00
36.8305 739.00
36.8957 753.00
36.9609 669.00
37.0261 591.00
37.0913 578.00
37.1565 584.00
37.2217 623.00
37.2869 598.00
37.3521 599.00
37.4173 583.00
37.4825 549.00
37.5477 556.00
37.6129 585.00
37.6781 580.00
37.7433 582.00
37.8085 538.00
37.8736 646.00
37.9388 523.00
38.004 558.00
38.0692 592.00
38.1344 567.00
38.1996 619.00
38.2648 586.00
38.33 709.00
38.3952 879.00
38.4604 1180.00
38.5256 894.00
38.5908 1011.00
38.656 1327.00
38.7212 2474.00
38.7864 1966.00
38.8516 1735.00
38.9168 907.00
38.982 733.00
39.0472 639.00
39.1124 527.00
39.1776 563.00
39.2428 490.00
39.308 521.00
39.3732 531.00
39.4384 518.00
39.5036 563.00
39.5688 551.00
39.634 527.00
39.6992 550.00
39.7644 503.00
39.8296 527.00
39.8948 488.00
39.96 516.00
40.0252 504.00
40.0904 507.00
40.1556 493.00
40.2208 510.00
40.286 546.00
40.3512 518.00
40.4164 556.00
40.4816 491.00
40.5468 500.00
40.612 469.00
40.6772 538.00
40.7424 581.00
40.8076 665.00
40.8728 1032.00
40.938 1190.00
41.0032 932.00
41.0684 729.00
41.1336 567.00
41.1988 597.00
41.264 574.00
41.3292 614.00
41.3944 850.00
41.4596 1546.00
41.5248 2359.00
41.59 1838.00
41.6552 1400.00
41.7204 832.00
41.7856 583.00
41.8508 558.00
41.916 544.00
41.9812 571.00
42.0464 508.00
42.1116 492.00
42.1768 500.00
42.242 525.00
42.3072 480.00
42.3724 501.00
42.4376 456.00
42.5028 535.00
42.568 482.00
42.6332 494.00
42.6983 490.00
42.7635 495.00
42.8287 482.00
42.8939 471.00
42.9591 477.00
43.0243 447.00
43.0895 477.00
43.1547 492.00
43.2199 524.00
43.2851 481.00
43.3503 483.00
43.4155 465.00
43.4807 501.00
43.5459 418.00
43.6111 431.00
43.6763 443.00
43.7415 459.00
43.8067 480.00
43.8719 472.00
43.9371 443.00
44.0023 474.00
44.0675 449.00
44.1327 456.00
44.1979 443.00
44.2631 500.00
44.3283 537.00
44.3935 805.00
44.4587 747.00
44.5239 642.00
44.5891 560.00
44.6543 496.00
44.7195 458.00
44.7847 469.00
44.8499 475.00
44.9151 470.00
44.9803 487.00
45.0455 465.00
45.1107 470.00
45.1759 497.00
45.2411 502.00
45.3063 512.00
45.3715 481.00
45.4367 510.00
45.5019 485.00
45.5671 490.00
45.6323 515.00
45.6975 510.00
45.7627 509.00
45.8279 612.00
45.8931 689.00
45.9583 1153.00
46.0235 2159.00
46.0887 1446.00
46.1539 1389.00
46.2191 818.00
46.2843 612.00
46.3495 615.00
46.4147 591.00
46.4799 696.00
46.5451 732.00
46.6103 1168.00
46.6755 2910.00
46.7407 7158.00
46.8059 4619.00
46.8711 4228.00
46.9363 1860.00
47.0015 764.00
47.0667 617.00
47.1319 582.00
47.1971 553.00
47.2623 535.00
47.3275 468.00
47.3927 501.00
47.4579 426.00
47.523 492.00
47.5882 495.00
47.6534 448.00
47.7186 461.00
47.7838 488.00
47.849 582.00
47.9142 888.00
47.9794 867.00
48.0446 734.00
48.1098 625.00
48.175 488.00
48.2402 435.00
48.3054 473.00
48.3706 462.00
48.4358 488.00
48.501 461.00
48.5662 435.00
48.6314 484.00
48.6966 421.00
48.7618 416.00
48.827 424.00
48.8922 467.00
48.9574 420.00
49.0226 462.00
49.0878 633.00
49.153 652.00
49.2182 552.00
49.2834 489.00
49.3486 474.00
49.4138 484.00
49.479 457.00
49.5442 462.00
49.6094 446.00
49.6746 478.00
49.7398 460.00
49.805 512.00
49.8702 550.00
49.9354 605.00
50.0006 940.00
50.0658 1835.00
50.131 2185.00
50.1962 1378.00
50.2614 1307.00
50.3266 722.00
50.3918 530.00
50.457 483.00
50.5222 445.00
50.5874 479.00
50.6526 458.00
50.7178 436.00
50.783 417.00
50.8482 421.00
50.9134 406.00
50.9786 412.00
51.0438 422.00
51.109 434.00
51.1742 473.00
51.2394 386.00
51.3046 472.00
51.3698 444.00
51.435 397.00
51.5002 401.00
51.5654 393.00
51.6306 408.00
51.6958 386.00
51.761 366.00
51.8262 399.00
51.8914 392.00
51.9566 376.00
52.0218 409.00
52.087 382.00
52.1522 413.00
52.2174 383.00
52.2826 439.00
52.3477 402.00
52.4129 474.00
52.4781 564.00
52.5433 541.00
52.6085 470.00
52.6737 525.00
52.7389 458.00
52.8041 407.00
52.8693 433.00
52.9345 424.00
52.9997 395.00
53.0649 425.00
53.1301 440.00
53.1953 426.00
53.2605 409.00
53.3257 361.00
53.3909 397.00
53.4561 399.00
53.5213 436.00
53.5865 466.00
53.6517 448.00
53.7169 466.00
53.7821 519.00
53.8473 572.00
53.9125 613.00
53.9777 644.00
54.0429 982.00
54.1081 1776.00
54.1733 3970.00
54.2385 5108.00
54.3037 3230.00
54.3689 3115.00
54.4341 1626.00
54.4993 951.00
54.5645 627.00
54.6297 582.00
54.6949 490.00
54.7601 456.00
54.8253 494.00
54.8905 447.00
54.9557 414.00
55.0209 461.00
55.0861 509.00
55.1513 487.00
55.2165 580.00
55.2817 1031.00
55.3469 1675.00
55.4121 854.00
55.4773 1109.00
55.5425 704.00
55.6077 536.00
55.6729 427.00
55.7381 429.00
55.8033 417.00
55.8685 402.00
55.9337 386.00
55.9989 369.00
56.0641 396.00
56.1293 407.00
56.1945 410.00
56.2597 388.00
56.3249 402.00
56.3901 430.00
56.4553 389.00
56.5205 375.00
56.5857 359.00
56.6509 396.00
56.7161 391.00
56.7813 389.00
56.8465 380.00
56.9117 392.00
56.9769 416.00
57.042 432.00
57.1073 391.00
57.1724 435.00
57.2376 434.00
57.3028 382.00
57.368 402.00
57.4332 404.00
57.4984 410.00
57.5636 404.00
57.6288 401.00
57.694 380.00
57.7592 366.00
57.8244 395.00
57.8896 359.00
57.9548 365.00
58.02 350.00
58.0852 358.00
58.1504 364.00
58.2156 399.00
58.2808 410.00
58.346 398.00
58.4112 471.00
58.4764 459.00
58.5416 653.00
58.6068 1231.00
58.672 1771.00
58.7372 854.00
58.8024 1138.00
58.8676 798.00
58.9328 586.00
58.998 831.00
59.0632 1632.00
59.1284 1092.00
59.1936 843.00
59.2588 982.00
59.324 531.00
59.3892 436.00
59.4544 365.00
59.5196 410.00
59.5848 396.00
59.65 378.00
59.7152 384.00
59.7804 383.00
59.8456 369.00
59.9108 396.00
59.976 417.00
60.0412 518.00
60.1064 697.00
60.1716 447.00
60.2368 507.00
60.302 472.00
60.3672 391.00
60.4324 366.00
60.4976 375.00
60.5628 349.00
60.628 388.00
60.6932 329.00
60.7584 360.00
60.8236 364.00
60.8888 334.00
60.954 330.00
61.0192 382.00
61.0844 356.00
61.1496 346.00
61.2148 358.00
61.28 378.00
61.3452 371.00
61.4104 346.00
61.4756 354.00
61.5408 349.00
61.606 365.00
61.6712 387.00
61.7364 371.00
61.8016 376.00
61.8667 430.00
61.932 428.00
61.9971 372.00
62.0623 398.00
62.1275 383.00
62.1927 357.00
62.2579 356.00
62.3231 361.00
62.3883 363.00
62.4535 358.00
62.5187 371.00
62.5839 360.00
62.6491 360.00
62.7143 363.00
62.7795 350.00
62.8447 395.00
62.9099 407.00
62.9751 432.00
63.0403 384.00
63.1055 415.00
63.1707 475.00
63.2359 551.00
63.3011 768.00
63.3663 1144.00
63.4315 1423.00
63.4967 1069.00
63.5619 1006.00
63.6271 839.00
63.6923 592.00
63.7575 501.00
63.8227 504.00
63.8879 540.00
63.9531 445.00
64.0183 524.00
64.0835 590.00
64.1487 659.00
64.2139 1267.00
64.2791 1048.00
64.3443 656.00
64.4095 937.00
64.4747 602.00
64.5399 400.00
64.6051 355.00
64.6703 358.00
64.7355 351.00
64.8007 385.00
64.8659 350.00
64.9311 373.00
64.9963 395.00
65.0615 412.00
65.1267 436.00
65.1919 449.00
65.2571 562.00
65.3223 798.00
65.3875 1286.00
65.4527 1793.00
65.5179 1571.00
65.5831 1153.00
65.6483 1172.00
65.7135 823.00
65.7787 517.00
65.8439 451.00
65.9091 383.00
65.9743 369.00
66.0395 333.00
66.1047 346.00
66.1699 382.00
66.2351 328.00
66.3003 324.00
66.3655 353.00
66.4307 318.00
66.4959 317.00
66.561 334.00
66.6263 333.00
66.6915 341.00
66.7566 341.00
66.8218 334.00
66.887 374.00
66.9522 412.00
67.0174 375.00
67.0826 358.00
67.1478 362.00
67.213 321.00
67.2782 332.00
67.3434 304.00
67.4086 339.00
67.4738 356.00
67.539 335.00
67.6042 325.00
67.6694 351.00
67.7346 304.00
67.7998 299.00
67.865 293.00
67.9302 329.00
67.9954 313.00
68.0606 329.00
68.1258 320.00
68.191 332.00
68.2562 310.00
68.3214 311.00
68.3866 317.00
68.4518 349.00
68.517 328.00
68.5822 347.00
68.6474 363.00
68.7126 364.00
68.7778 355.00
68.843 326.00
68.9082 345.00
68.9734 321.00
69.0386 322.00
69.1038 341.00
69.169 303.00
69.2342 319.00
69.2994 323.00
69.3646 369.00
69.4298 382.00
69.495 317.00
69.5602 383.00
69.6254 399.00
69.6906 385.00
69.7558 362.00
69.821 495.00
69.8862 812.00
69.9514 1695.00
70.0166 783.00
70.0818 721.00
70.147 1013.00
70.2122 578.00
70.2774 366.00
70.3426 375.00
70.4078 376.00
70.473 380.00
70.5382 343.00
70.6034 352.00
70.6686 370.00
70.7338 415.00
70.799 461.00
70.8642 578.00
70.9294 886.00
70.9946 892.00
71.0598 665.00
71.125 666.00
71.1902 680.00
71.2554 495.00
71.3205 423.00
71.3858 417.00
71.451 359.00
71.5162 390.00
71.5813 319.00
71.6465 374.00
71.7117 490.00
71.7769 783.00
71.8421 711.00
71.9073 483.00
71.9725 571.00
72.0377 574.00
72.1029 455.00
72.1681 346.00
72.2333 319.00
72.2985 345.00
72.3637 322.00
72.4289 329.00
72.4941 322.00
72.5593 339.00
72.6245 305.00
72.6897 336.00
72.7549 285.00
72.8201 323.00
72.8853 295.00
72.9505 310.00
73.0157 317.00
73.0809 283.00
73.1461 303.00
73.2113 329.00
73.2765 283.00
73.3417 306.00
73.4069 335.00
73.4721 308.00
73.5373 340.00
73.6025 306.00
73.6677 297.00
73.7329 353.00
73.7981 335.00
73.8633 317.00
73.9285 315.00
73.9937 330.00
74.0589 328.00
74.1241 312.00
74.1893 342.00
74.2545 349.00
74.3197 407.00
74.3849 411.00
74.4501 363.00
74.5153 414.00
74.5805 482.00
74.6457 767.00
74.7109 1325.00
74.7761 645.00
74.8413 540.00
74.9065 809.00
74.9717 620.00
75.0369 392.00
75.1021 296.00
75.1673 330.00
75.2325 327.00
75.2977 279.00
75.3629 288.00
75.4281 337.00
75.4933 304.00
75.5585 316.00
75.6237 281.00
75.6889 330.00
75.7541 313.00
75.8193 297.00
75.8845 320.00
75.9497 376.00
76.0149 333.00
76.0801 303.00
76.1452 303.00
76.2104 343.00
76.2756 332.00
76.3409 281.00
76.406 324.00
76.4712 258.00
76.5364 296.00
76.6016 348.00
76.6668 326.00
76.732 369.00
76.7972 341.00
76.8624 483.00
76.9276 479.00
76.9928 406.00
77.058 424.00
77.1232 608.00
77.1884 636.00
77.2536 515.00
77.3188 450.00
77.384 442.00
77.4492 427.00
77.5144 388.00
77.5796 316.00
77.6448 296.00
77.71 328.00
77.7752 292.00
77.8404 304.00
77.9056 354.00
77.9708 305.00
78.036 288.00
78.1012 318.00
78.1664 337.00
78.2316 317.00
78.2968 287.00
78.362 347.00
78.4272 337.00
78.4924 439.00
78.5576 481.00
78.6228 545.00
78.688 427.00
78.7532 373.00
78.8184 457.00
78.8836 466.00
78.9488 330.00
79.014 342.00
79.0792 313.00
79.1444 343.00
79.2096 345.00
79.2748 307.00
79.34 330.00
79.4052 320.00
79.4704 359.00
79.5356 432.00
79.6008 421.00
79.666 716.00
79.7312 1273.00
79.7964 644.00
79.8616 555.00
79.9268 755.00
79.992 889.00
80.0572 977.00
80.1224 1006.00
80.1876 537.00
80.2528 544.00
80.318 782.00
80.3832 597.00
80.4484 456.00
80.5136 370.00
80.5788 340.00
80.644 355.00
80.7092 319.00
80.7744 329.00
80.8396 331.00
80.9048 312.00
80.9699 347.00
81.0351 321.00
81.1003 301.00
81.1655 316.00
81.2307 333.00
81.2959 301.00
81.3611 314.00
81.4263 353.00
81.4915 329.00
81.5567 331.00
81.6219 350.00
81.6871 352.00
81.7523 406.00
81.8175 602.00
81.8827 853.00
81.9479 429.00
82.0131 459.00
82.0783 561.00
82.1435 569.00
82.2087 470.00
82.2739 548.00
82.3391 685.00
82.4043 632.00
82.4695 559.00
82.5347 620.00
82.5999 612.00
82.6651 490.00
82.7303 431.00
82.7955 500.00
82.8607 440.00
82.9259 341.00
82.9911 340.00
83.0563 368.00
83.1215 367.00
83.1867 306.00
83.2519 290.00
83.3171 292.00
83.3823 308.00
83.4475 256.00
83.5127 310.00
83.5779 296.00
83.6431 342.00
83.7083 337.00
83.7735 362.00
83.8387 341.00
83.9039 309.00
83.9691 312.00
84.0343 300.00
84.0995 294.00
84.1647 303.00
84.2299 268.00
84.2951 293.00
84.3603 298.00
84.4255 289.00
84.4907 286.00
84.5559 284.00
84.6211 258.00
84.6863 288.00
84.7515 300.00
84.8167 322.00
84.8819 268.00
84.9471 297.00
85.0123 312.00
85.0775 295.00
85.1427 302.00
85.2079 309.00
85.2731 279.00
85.3383 314.00
85.4035 285.00
85.4687 284.00
85.5339 317.00
85.5991 367.00
85.6643 582.00
85.7295 507.00
85.7946 310.00
85.8598 361.00
85.925 421.00
85.9903 418.00
86.0554 341.00
86.1206 296.00
86.1858 251.00
86.251 328.00
86.3162 337.00
86.3814 368.00
86.4466 439.00
86.5118 532.00
86.577 514.00
86.6422 406.00
86.7074 375.00
86.7726 413.00
86.8378 375.00
86.903 350.00
86.9682 314.00
87.0334 294.00
87.0986 331.00
87.1638 327.00
87.229 299.00
87.2942 301.00
87.3594 324.00
87.4246 290.00
87.4898 262.00
87.555 282.00
87.6202 289.00
87.6854 237.00
87.7506 292.00
87.8158 278.00
87.881 246.00
87.9462 295.00
88.0114 289.00
88.0766 268.00
88.1418 309.00
88.207 285.00
88.2722 279.00
88.3374 283.00
88.4026 272.00
88.4678 244.00
88.533 295.00
88.5982 264.00
88.6634 274.00
88.7286 283.00
88.7938 295.00
88.859 269.00
88.9242 303.00
88.9894 297.00
89.0546 314.00
89.1198 301.00
89.185 283.00
89.2502 313.00
89.3154 315.00
89.3806 416.00
89.4458 416.00
89.511 348.00
89.5762 441.00
89.6414 575.00
89.7066 742.00
89.7718 776.00
89.837 604.00
89.9022 514.00
89.9674 547.00
90.0326 563.00
90.0978 486.00
90.163 352.00
90.2282 342.00
90.2934 305.00
90.3586 288.00
90.4238 320.00
90.489 309.00
90.5542 293.00
90.6193 298.00
90.6845 307.00
90.7497 325.00
90.8149 308.00
90.8801 310.00
90.9453 322.00
91.0105 276.00
91.0757 305.00
91.1409 244.00
91.2061 263.00
91.2713 237.00
91.3365 288.00
91.4017 273.00
91.4669 242.00
91.5321 262.00
91.5973 324.00
91.6625 284.00
91.7277 250.00
91.7929 298.00
91.8581 271.00
91.9233 301.00
91.9885 301.00
92.0537 259.00
92.1189 294.00
92.1841 270.00
92.2493 276.00
92.3145 259.00
92.3797 280.00
92.4449 284.00
92.5101 279.00
92.5753 280.00
92.6405 317.00
92.7057 302.00
92.7709 260.00
92.8361 282.00
92.9013 291.00
92.9665 312.00
93.0317 287.00
93.0969 330.00
93.1621 288.00
93.2273 359.00
93.2925 431.00
93.3577 500.00
93.4229 692.00
93.4881 743.00
93.5533 551.00
93.6185 541.00
93.6837 470.00
93.7489 540.00
93.8141 497.00
93.8793 448.00
93.9445 431.00
94.0097 349.00
94.0749 351.00
94.1401 332.00
94.2053 354.00
94.2705 362.00
94.3357 378.00
94.4009 383.00
94.4661 421.00
94.5313 326.00
94.5965 311.00
94.6617 287.00
94.7269 361.00
94.7921 365.00
94.8573 300.00
94.9225 326.00
94.9877 327.00
95.0529 314.00
95.1181 297.00
95.1833 293.00
95.2485 329.00
95.3137 347.00
95.3789 392.00
95.444 655.00
95.5092 596.00
95.5744 375.00
95.6396 337.00
95.7048 416.00
95.77 509.00
95.8352 424.00
95.9004 364.00
95.9656 326.00
96.0308 315.00
96.096 318.00
96.1612 314.00
96.2264 312.00
96.2916 301.00
96.3568 311.00
96.422 319.00
96.4872 383.00
96.5524 502.00
96.6176 416.00
96.6828 327.00
96.748 346.00
96.8132 380.00
96.8784 456.00
96.9436 377.00
97.0088 307.00
97.074 306.00
97.1392 313.00
97.2044 351.00
97.2696 302.00
97.3348 287.00
97.4 301.00
97.4652 314.00
97.5304 358.00
97.5956 365.00
97.6608 330.00
97.726 345.00
97.7912 313.00
97.8564 306.00
97.9216 343.00
97.9868 326.00
98.052 288.00
98.1172 287.00
98.1824 296.00
98.2476 294.00
98.3128 282.00
98.378 288.00
98.4432 319.00
98.5084 295.00
98.5736 273.00
98.6388 315.00
98.704 350.00
98.7692 324.00
98.8344 272.00
98.8996 287.00
98.9648 338.00
99.03 272.00
99.0952 332.00
99.1604 323.00
99.2256 368.00
99.2908 396.00
99.356 543.00
99.4212 403.00
99.4864 366.00
99.5516 362.00
99.6168 416.00
99.682 668.00
99.7472 936.00
99.8124 495.00
99.8776 385.00
99.9428 345.00
100.008 494.00
100.073 553.00
100.095 532.00