File: data/xrd_creation/results/PG_2647-1.xy
9.903433 2730.00
9.968632 2737.00
10.0338 2610.00
10.099 2653.00
10.1642 2537.00
10.2294 2497.00
10.2946 2532.00
10.3598 2516.00
10.425 2548.00
10.4902 2472.00
10.5554 2456.00
10.6206 2480.00
10.6858 2445.00
10.751 2511.00
10.8162 2543.00
10.8814 2455.00
10.9466 2472.00
11.0118 2480.00
11.077 2449.00
11.1422 2321.00
11.2074 2317.00
11.2726 2349.00
11.3378 2263.00
11.403 2383.00
11.4682 2295.00
11.5334 2308.00
11.5986 2266.00
11.6638 2242.00
11.729 2246.00
11.7942 2208.00
11.8594 2207.00
11.9246 2112.00
11.9898 2125.00
12.055 2107.00
12.1202 2219.00
12.1854 2104.00
12.2506 2080.00
12.3158 2083.00
12.381 2008.00
12.4462 2113.00
12.5114 2151.00
12.5766 2046.00
12.6418 2051.00
12.707 2092.00
12.7722 2005.00
12.8374 2044.00
12.9026 1993.00
12.9678 1973.00
13.033 2047.00
13.0982 1965.00
13.1634 2000.00
13.2286 2067.00
13.2938 2054.00
13.359 1892.00
13.4242 1898.00
13.4894 1971.00
13.5546 1958.00
13.6198 1945.00
13.685 1875.00
13.7502 1824.00
13.8154 1922.00
13.8805 1887.00
13.9457 1893.00
14.0109 1894.00
14.0761 1977.00
14.1413 1851.00
14.2065 1891.00
14.2717 1938.00
14.3369 1854.00
14.4021 1965.00
14.4673 1924.00
14.5325 2020.00
14.5977 1900.00
14.6629 1888.00
14.7281 1829.00
14.7933 1842.00
14.8585 1843.00
14.9237 1761.00
14.9889 1815.00
15.0541 1825.00
15.1193 1766.00
15.1845 1884.00
15.2497 1881.00
15.3149 1797.00
15.3801 1801.00
15.4453 1895.00
15.5105 1878.00
15.5757 1962.00
15.6409 1996.00
15.7061 2099.00
15.7713 1828.00
15.8365 1768.00
15.9017 1846.00
15.9669 1756.00
16.0321 1673.00
16.0973 1686.00
16.1625 1765.00
16.2277 1794.00
16.2929 1752.00
16.3581 1771.00
16.4233 1783.00
16.4885 1772.00
16.5537 1691.00
16.6189 1707.00
16.6841 1816.00
16.7493 1662.00
16.8145 1789.00
16.8797 1730.00
16.9449 1698.00
17.0101 1751.00
17.0753 1845.00
17.1405 1889.00
17.2057 2007.00
17.2709 2292.00
17.3361 2089.00
17.4013 1686.00
17.4665 1691.00
17.5317 1772.00
17.5969 1762.00
17.6621 1643.00
17.7273 1653.00
17.7925 1652.00
17.8577 1602.00
17.9229 1688.00
17.9881 1560.00
18.0533 1669.00
18.1185 1662.00
18.1837 1621.00
18.2489 1654.00
18.3141 1609.00
18.3793 1575.00
18.4445 1614.00
18.5097 1603.00
18.5749 1607.00
18.6401 1623.00
18.7052 1651.00
18.7704 1605.00
18.8356 1663.00
18.9008 1527.00
18.966 1669.00
19.0312 1594.00
19.0964 1551.00
19.1616 1573.00
19.2268 1550.00
19.292 1560.00
19.3572 1511.00
19.4224 1615.00
19.4876 1529.00
19.5528 1505.00
19.618 1585.00
19.6832 1554.00
19.7484 1554.00
19.8136 1601.00
19.8788 1474.00
19.944 1565.00
20.0092 1602.00
20.0744 1570.00
20.1396 1647.00
20.2048 1684.00
20.27 1815.00
20.3352 1981.00
20.4004 2276.00
20.4656 2107.00
20.5308 2199.00
20.596 2721.00
20.6612 3515.00
20.7264 3874.00
20.7916 3196.00
20.8568 2217.00
20.922 1886.00
20.9872 1907.00
21.0524 1675.00
21.1176 1617.00
21.1828 1573.00
21.248 1527.00
21.3132 1456.00
21.3784 1451.00
21.4436 1521.00
21.5088 1490.00
21.574 1490.00
21.6392 1524.00
21.7044 1501.00
21.7696 1482.00
21.8348 1526.00
21.9 1564.00
21.9652 1580.00
22.0304 1696.00
22.0956 1892.00
22.1608 1771.00
22.226 1708.00
22.2912 1488.00
22.3564 1495.00
22.4216 1482.00
22.4868 1393.00
22.552 1406.00
22.6172 1411.00
22.6824 1434.00
22.7476 1469.00
22.8128 1445.00
22.878 1425.00
22.9432 1397.00
23.0084 1384.00
23.0736 1429.00
23.1388 1418.00
23.204 1407.00
23.2692 1467.00
23.3344 1409.00
23.3996 1414.00
23.4647 1396.00
23.5299 1494.00
23.5951 1398.00
23.6603 1330.00
23.7255 1367.00
23.7907 1405.00
23.8559 1361.00
23.9211 1456.00
23.9863 1374.00
24.0515 1399.00
24.1167 1339.00
24.1819 1445.00
24.2471 1328.00
24.3123 1372.00
24.3775 1335.00
24.4427 1410.00
24.5079 1406.00
24.5731 1328.00
24.6383 1345.00
24.7035 1332.00
24.7687 1366.00
24.8339 1289.00
24.8991 1363.00
24.9643 1355.00
25.0295 1356.00
25.0947 1344.00
25.1599 1280.00
25.2251 1415.00
25.2903 1330.00
25.3555 1336.00
25.4207 1307.00
25.4859 1356.00
25.5511 1320.00
25.6163 1401.00
25.6815 1357.00
25.7467 1316.00
25.8119 1410.00
25.8771 1350.00
25.9423 1366.00
26.0075 1272.00
26.0727 1257.00
26.1379 1332.00
26.2031 1278.00
26.2683 1358.00
26.3335 1376.00
26.3987 1435.00
26.4639 1681.00
26.5291 1615.00
26.5943 1437.00
26.6595 1309.00
26.7247 1261.00
26.7899 1292.00
26.8551 1347.00
26.9203 1389.00
26.9855 1363.00
27.0507 1311.00
27.1159 1314.00
27.1811 1404.00
27.2463 1389.00
27.3115 1424.00
27.3767 1598.00
27.4419 1831.00
27.5071 2327.00
27.5723 3390.00
27.6375 3947.00
27.7027 4928.00
27.7679 5014.00
27.8331 6312.00
27.8983 4478.00
27.9635 2110.00
28.0287 1496.00
28.0939 1449.00
28.1591 1421.00
28.2243 1501.00
28.2894 1588.00
28.3546 2005.00
28.4198 2619.00
28.485 2816.00
28.5502 2080.00
28.6154 1611.00
28.6806 1418.00
28.7458 1357.00
28.811 1402.00
28.8762 1374.00
28.9414 1415.00
29.0066 1434.00
29.0718 1444.00
29.137 1538.00
29.2022 1834.00
29.2674 1803.00
29.3326 1685.00
29.3978 2000.00
29.463 2844.00
29.5282 3160.00
29.5934 2947.00
29.6586 3431.00
29.7238 3461.00
29.789 2632.00
29.8542 1695.00
29.9194 1426.00
29.9846 1340.00
30.0498 1316.00
30.115 1248.00
30.1802 1221.00
30.2454 1229.00
30.3106 1287.00
30.3758 1178.00
30.441 1209.00
30.5062 1220.00
30.5714 1176.00
30.6366 1210.00
30.7018 1209.00
30.767 1185.00
30.8322 1224.00
30.8974 1269.00
30.9626 1246.00
31.0278 1263.00
31.093 1304.00
31.1582 1279.00
31.2234 1455.00
31.2886 1741.00
31.3538 1830.00
31.419 1628.00
31.4842 1346.00
31.5494 1207.00
31.6146 1157.00
31.6798 1154.00
31.745 1225.00
31.8102 1229.00
31.8754 1134.00
31.9406 1195.00
32.0058 1204.00
32.071 1252.00
32.1362 1181.00
32.2014 1271.00
32.2666 1228.00
32.3318 1186.00
32.397 1147.00
32.4622 1183.00
32.5274 1209.00
32.5926 1209.00
32.6578 1229.00
32.723 1296.00
32.7882 1315.00
32.8534 1491.00
32.9186 1653.00
32.9838 1984.00
33.0489 1973.00
33.1141 1607.00
33.1793 1293.00
33.2445 1207.00
33.3097 1219.00
33.3749 1154.00
33.4401 1160.00
33.5053 1153.00
33.5705 1162.00
33.6357 1209.00
33.7009 1184.00
33.7661 1192.00
33.8313 1236.00
33.8965 1283.00
33.9617 1539.00
34.0269 1913.00
34.0921 1624.00
34.1573 1363.00
34.2225 1211.00
34.2877 1171.00
34.3529 1194.00
34.4181 1261.00
34.4833 1452.00
34.5485 2095.00
34.6137 2524.00
34.6789 1945.00
34.7441 1433.00
34.8093 1214.00
34.8745 1243.00
34.9397 1171.00
35.0049 1115.00
35.0701 1162.00
35.1353 1155.00
35.2005 1133.00
35.2657 1156.00
35.3309 1160.00
35.3961 1144.00
35.4613 1179.00
35.5265 1137.00
35.5917 1092.00
35.6569 1120.00
35.7221 1139.00
35.7873 1113.00
35.8525 1108.00
35.9177 1115.00
35.9829 1069.00
36.0481 1184.00
36.1133 1123.00
36.1785 1071.00
36.2437 1128.00
36.3089 1115.00
36.3741 1126.00
36.4393 1137.00
36.5045 1124.00
36.5697 1099.00
36.6349 1112.00
36.7001 1069.00
36.7653 1083.00
36.8305 1153.00
36.8957 1267.00
36.9609 1521.00
37.0261 1418.00
37.0913 1300.00
37.1565 1189.00
37.2217 1222.00
37.2869 1305.00
37.3521 1302.00
37.4173 1241.00
37.4825 1326.00
37.5477 1168.00
37.6129 1176.00
37.6781 1143.00
37.7433 1114.00
37.8085 1135.00
37.8736 1133.00
37.9388 1135.00
38.004 1139.00
38.0692 1120.00
38.1344 1152.00
38.1996 1269.00
38.2648 1370.00
38.33 1142.00
38.3952 1219.00
38.4604 1119.00
38.5256 1109.00
38.5908 1074.00
38.656 1175.00
38.7212 1199.00
38.7864 1228.00
38.8516 1428.00
38.9168 1788.00
38.982 1937.00
39.0472 1621.00
39.1124 1307.00
39.1776 1101.00
39.2428 1067.00
39.308 1052.00
39.3732 1122.00
39.4384 1020.00
39.5036 1087.00
39.5688 1082.00
39.634 1105.00
39.6992 1064.00
39.7644 1105.00
39.8296 1123.00
39.8948 1069.00
39.96 1074.00
40.0252 1120.00
40.0904 1057.00
40.1556 1104.00
40.2208 1051.00
40.286 1069.00
40.3512 1116.00
40.4164 1111.00
40.4816 1332.00
40.5468 2029.00
40.612 1491.00
40.6772 1545.00
40.7424 1243.00
40.8076 1199.00
40.8728 1170.00
40.938 1239.00
41.0032 1226.00
41.0684 1452.00
41.1336 1403.00
41.1988 1503.00
41.264 1312.00
41.3292 1225.00
41.3944 1131.00
41.4596 1097.00
41.5248 1243.00
41.59 1252.00
41.6552 1442.00
41.7204 1462.00
41.7856 1560.00
41.8508 1387.00
41.916 1401.00
41.9812 1258.00
42.0464 1226.00
42.1116 1328.00
42.1768 1320.00
42.242 1351.00
42.3072 1413.00
42.3724 1372.00
42.4376 1302.00
42.5028 1320.00
42.568 1438.00
42.6332 1301.00
42.6983 1262.00
42.7635 1138.00
42.8287 1284.00
42.8939 1565.00
42.9591 2057.00
43.0243 1590.00
43.0895 1694.00
43.1547 1381.00
43.2199 1191.00
43.2851 1185.00
43.3503 1125.00
43.4155 1075.00
43.4807 1111.00
43.5459 1085.00
43.6111 1193.00
43.6763 1179.00
43.7415 1320.00
43.8067 1356.00
43.8719 1247.00
43.9371 1149.00
44.0023 1142.00
44.0675 1082.00
44.1327 1103.00
44.1979 1039.00
44.2631 1109.00
44.3283 1092.00
44.3935 1223.00
44.4587 1217.00
44.5239 1289.00
44.5891 1153.00
44.6543 1168.00
44.7195 1076.00
44.7847 1066.00
44.8499 1088.00
44.9151 1094.00
44.9803 1078.00
45.0455 1065.00
45.1107 1090.00
45.1759 1065.00
45.2411 1060.00
45.3063 1031.00
45.3715 1054.00
45.4367 1016.00
45.5019 1065.00
45.5671 1070.00
45.6323 1066.00
45.6975 1100.00
45.7627 1179.00
45.8279 1216.00
45.8931 1462.00
45.9583 1240.00
46.0235 1393.00
46.0887 1138.00
46.1539 1062.00
46.2191 1066.00
46.2843 1183.00
46.3495 1461.00
46.4147 1538.00
46.4799 1359.00
46.5451 1261.00
46.6103 1100.00
46.6755 1049.00
46.7407 1033.00
46.8059 998.00
46.8711 1079.00
46.9363 1056.00
47.0015 1027.00
47.0667 1029.00
47.1319 996.00
47.1971 1042.00
47.2623 1084.00
47.3275 1092.00
47.3927 1190.00
47.4579 1204.00
47.523 1390.00
47.5882 1438.00
47.6534 1287.00
47.7186 1244.00
47.7838 1105.00
47.849 1089.00
47.9142 1155.00
47.9794 1270.00
48.0446 1355.00
48.1098 1331.00
48.175 1222.00
48.2402 1185.00
48.3054 1192.00
48.3706 1174.00
48.4358 1208.00
48.501 1256.00
48.5662 1234.00
48.6314 1226.00
48.6966 1173.00
48.7618 1084.00
48.827 1056.00
48.8922 1092.00
48.9574 1063.00
49.0226 1032.00
49.0878 1025.00
49.153 1050.00
49.2182 1075.00
49.2834 1108.00
49.3486 1116.00
49.4138 1170.00
49.479 1049.00
49.5442 1053.00
49.6094 973.00
49.6746 1067.00
49.7398 1098.00
49.805 1014.00
49.8702 1036.00
49.9354 1130.00
50.0006 955.00
50.0658 1081.00
50.131 1056.00
50.1962 1057.00
50.2614 1026.00
50.3266 1003.00
50.3918 1024.00
50.457 1003.00
50.5222 1069.00
50.5874 1089.00
50.6526 1071.00
50.7178 1004.00
50.783 1137.00
50.8482 1068.00
50.9134 1028.00
50.9786 1055.00
51.0438 1047.00
51.109 1082.00
51.1742 1085.00
51.2394 1191.00
51.3046 1220.00
51.3698 1126.00
51.435 1124.00
51.5002 1147.00
51.5654 1180.00
51.6306 1180.00
51.6958 1338.00
51.761 1285.00
51.8262 1317.00
51.8914 1403.00
51.9566 1461.00
52.0218 1402.00
52.087 1262.00
52.1522 1182.00
52.2174 1157.00
52.2826 1232.00
52.3477 1342.00
52.4129 1361.00
52.4781 1157.00
52.5433 1227.00
52.6085 1238.00
52.6737 1169.00
52.7389 1337.00
52.8041 1316.00
52.8693 1211.00
52.9345 1189.00
52.9997 1040.00
53.0649 1064.00
53.1301 1060.00
53.1953 1021.00
53.2605 1030.00
53.3257 1025.00
53.3909 1034.00
53.4561 1038.00
53.5213 1067.00
53.5865 1044.00
53.6517 1059.00
53.7169 1056.00
53.7821 1160.00
53.8473 1488.00
53.9125 1963.00
53.9777 1451.00
54.0429 1472.00
54.1081 1276.00
54.1733 1104.00
54.2385 1017.00
54.3037 1088.00
54.3689 1083.00
54.4341 1071.00
54.4993 1093.00
54.5645 1196.00
54.6297 1295.00
54.6949 1361.00
54.7601 1121.00
54.8253 1148.00
54.8905 1091.00
54.9557 1055.00
55.0209 1083.00
55.0861 1048.00
55.1513 1072.00
55.2165 1047.00
55.2817 1002.00
55.3469 1098.00
55.4121 1000.00
55.4773 1072.00
55.5425 1059.00
55.6077 1034.00
55.6729 1043.00
55.7381 1083.00
55.8033 1169.00
55.8685 1051.00
55.9337 1225.00
55.9989 1215.00
56.0641 1272.00
56.1293 1205.00
56.1945 1151.00
56.2597 1074.00
56.3249 1115.00
56.3901 1115.00
56.4553 1104.00
56.5205 1130.00
56.5857 1254.00
56.6509 1715.00
56.7161 1375.00
56.7813 1478.00
56.8465 1284.00
56.9117 1164.00
56.9769 1149.00
57.042 1084.00
57.1073 1065.00
57.1724 1120.00
57.2376 1112.00
57.3028 1101.00
57.368 1087.00
57.4332 1133.00
57.4984 1088.00
57.5636 1119.00
57.6288 1055.00
57.694 1086.00
57.7592 1252.00
57.8244 1175.00
57.8896 1191.00
57.9548 1204.00
58.02 1061.00
58.0852 1030.00
58.1504 1108.00
58.2156 1020.00
58.2808 1012.00
58.346 1054.00
58.4112 1058.00
58.4764 1055.00
58.5416 1067.00
58.6068 1063.00
58.672 1049.00
58.7372 1066.00
58.8024 1057.00
58.8676 1086.00
58.9328 1032.00
58.998 1052.00
59.0632 1055.00
59.1284 1093.00
59.1936 1065.00
59.2588 1152.00
59.324 1466.00
59.3892 1536.00
59.4544 1489.00
59.5196 2255.00
59.5848 1455.00
59.65 1434.00
59.7152 1457.00
59.7804 1186.00
59.8456 1274.00
59.9108 1401.00
59.976 1696.00
60.0412 1619.00
60.1064 1532.00
60.1716 1499.00
60.2368 1329.00
60.302 1200.00
60.3672 1198.00
60.4324 1105.00
60.4976 1089.00
60.5628 1234.00
60.628 1128.00
60.6932 1234.00
60.7584 1320.00
60.8236 1404.00
60.8888 1299.00
60.954 1250.00
61.0192 1243.00
61.0844 1239.00
61.1496 1258.00
61.2148 1291.00
61.28 1512.00
61.3452 1573.00
61.4104 1449.00
61.4756 1342.00
61.5408 1277.00
61.606 1200.00
61.6712 1122.00
61.7364 1147.00
61.8016 1222.00
61.8667 1222.00
61.932 1329.00
61.9971 1188.00
62.0623 1169.00
62.1275 1141.00
62.1927 1086.00
62.2579 1129.00
62.3231 1179.00
62.3883 1110.00
62.4535 1078.00
62.5187 1147.00
62.5839 1099.00
62.6491 995.00
62.7143 1041.00
62.7795 981.00
62.8447 1024.00
62.9099 1015.00
62.9751 1038.00
63.0403 1025.00
63.1055 1072.00
63.1707 1063.00
63.2359 1043.00
63.3011 1080.00
63.3663 1042.00
63.4315 1012.00
63.4967 1061.00
63.5619 1085.00
63.6271 1083.00
63.6923 1070.00
63.7575 1211.00
63.8227 1239.00
63.8879 1101.00
63.9531 1236.00
64.0183 1144.00
64.0835 1099.00
64.1487 1068.00
64.2139 1167.00
64.2791 1358.00
64.3443 1122.00
64.4095 1222.00
64.4747 1201.00
64.5399 1138.00
64.6051 1100.00
64.6703 1194.00
64.7355 1071.00
64.8007 1093.00
64.8659 1121.00
64.9311 1272.00
64.9963 1613.00
65.0615 1259.00
65.1267 1274.00
65.1919 1499.00
65.2571 1318.00
65.3223 1330.00
65.3875 1268.00
65.4527 1241.00
65.5179 1241.00
65.5831 1123.00
65.6483 1099.00
65.7135 1082.00
65.7787 1331.00
65.8439 1235.00
65.9091 1144.00
65.9743 1166.00
66.0395 1170.00
66.1047 1073.00
66.1699 1075.00
66.2351 1105.00
66.3003 1102.00
66.3655 1005.00
66.4307 1068.00
66.4959 1062.00
66.561 977.00
66.6263 1114.00
66.6915 1074.00
66.7566 1086.00
66.8218 1004.00
66.887 1011.00
66.9522 1035.00
67.0174 1110.00
67.0826 1046.00
67.1478 1038.00
67.213 1045.00
67.2782 1021.00
67.3434 969.00
67.4086 1022.00
67.4738 1064.00
67.539 1036.00
67.6042 1007.00
67.6694 1054.00
67.7346 980.00
67.7998 1048.00
67.865 1033.00
67.9302 1051.00
67.9954 1077.00
68.0606 995.00
68.1258 1029.00
68.191 956.00
68.2562 1057.00
68.3214 1005.00
68.3866 1014.00
68.4518 1031.00
68.517 1244.00
68.5822 1287.00
68.6474 1050.00
68.7126 1134.00
68.7778 1221.00
68.843 1128.00
68.9082 1029.00
68.9734 1146.00
69.0386 1238.00
69.1038 1434.00
69.169 1178.00
69.2342 1433.00
69.2994 1295.00
69.3646 1155.00
69.4298 1175.00
69.495 1053.00
69.5602 985.00
69.6254 1086.00
69.6906 1045.00
69.7558 1054.00
69.821 983.00
69.8862 1044.00
69.9514 983.00
70.0166 1046.00
70.0818 1132.00
70.147 1082.00
70.2122 1116.00
70.2774 1120.00
70.3426 1036.00
70.4078 1129.00
70.473 1098.00
70.5382 1066.00
70.6034 1082.00
70.6686 1079.00
70.7338 1106.00
70.799 1081.00
70.8642 1095.00
70.9294 1106.00
70.9946 1044.00
71.0598 1023.00
71.125 1072.00
71.1902 1071.00
71.2554 1093.00
71.3205 1159.00
71.3858 1088.00
71.451 1004.00
71.5162 1162.00
71.5813 1079.00
71.6465 1071.00
71.7117 1100.00
71.7769 1101.00
71.8421 1037.00
71.9073 1085.00
71.9725 1074.00
72.0377 1188.00
72.1029 1314.00
72.1681 1122.00
72.2333 1085.00
72.2985 1209.00
72.3637 1083.00
72.4289 1062.00
72.4941 1093.00
72.5593 1061.00
72.6245 1078.00
72.6897 1028.00
72.7549 1076.00
72.8201 1108.00
72.8853 1104.00
72.9505 1122.00
73.0157 1098.00
73.0809 1038.00
73.1461 1117.00
73.2113 1142.00
73.2765 1044.00
73.3417 1143.00
73.4069 1140.00
73.4721 1173.00
73.5373 1099.00
73.6025 1085.00
73.6677 1090.00
73.7329 1073.00
73.7981 1068.00
73.8633 1018.00
73.9285 1035.00
73.9937 1060.00
74.0589 1041.00
74.1241 1036.00
74.1893 980.00
74.2545 1031.00
74.3197 1111.00
74.3849 992.00
74.4501 1012.00
74.5153 1026.00
74.5805 1024.00
74.6457 1059.00
74.7109 1001.00
74.7761 1070.00
74.8413 1011.00
74.9065 1145.00
74.9717 1021.00
75.0369 1095.00
75.1021 1165.00
75.1673 1092.00
75.2325 1089.00
75.2977 1066.00
75.3629 1105.00
75.4281 1070.00
75.4933 1028.00
75.5585 975.00
75.6237 1064.00
75.6889 1039.00
75.7541 1043.00
75.8193 1000.00
75.8845 1001.00
75.9497 1070.00
76.0149 1124.00
76.0801 1081.00
76.1452 1086.00
76.2104 1225.00
76.2756 1155.00
76.3409 1083.00
76.406 1114.00
76.4712 1082.00
76.5364 1114.00
76.6016 1119.00
76.6668 1134.00
76.732 1096.00
76.7972 1060.00
76.8624 1138.00
76.9276 1066.00
76.9928 1070.00
77.058 1024.00
77.1232 1057.00
77.1884 1017.00
77.2536 1049.00
77.3188 1008.00
77.384 1030.00
77.4492 985.00
77.5144 1044.00
77.5796 998.00
77.6448 992.00
77.71 1089.00
77.7752 1057.00
77.8404 1094.00
77.9056 1156.00
77.9708 1137.00
78.036 1162.00
78.1012 1136.00
78.1664 1152.00
78.2316 1143.00
78.2968 1128.00
78.362 1103.00
78.4272 1052.00
78.4924 1140.00
78.5576 1055.00
78.6228 1050.00
78.688 1083.00
78.7532 1089.00
78.8184 1125.00
78.8836 995.00
78.9488 1054.00
79.014 1056.00
79.0792 1088.00
79.1444 1028.00
79.2096 1006.00
79.2748 1078.00
79.34 1020.00
79.4052 1091.00
79.4704 1046.00
79.5356 982.00
79.6008 1040.00
79.666 987.00
79.7312 1118.00
79.7964 1001.00
79.8616 1064.00
79.9268 1091.00
79.992 1064.00
80.0572 1134.00
80.1224 1076.00
80.1876 1082.00
80.2528 1104.00
80.318 978.00
80.3832 1073.00
80.4484 1081.00
80.5136 1109.00
80.5788 998.00
80.644 1022.00
80.7092 1003.00
80.7744 1060.00
80.8396 1177.00
80.9048 1216.00
80.9699 1115.00
81.0351 1014.00
81.1003 1166.00
81.1655 1093.00
81.2307 1106.00
81.2959 1029.00
81.3611 1051.00
81.4263 1033.00
81.4915 1041.00
81.5567 993.00
81.6219 1099.00
81.6871 1099.00
81.7523 1136.00
81.8175 1097.00
81.8827 1167.00
81.9479 1069.00
82.0131 1090.00
82.0783 1069.00
82.1435 1024.00
82.2087 1000.00
82.2739 1053.00
82.3391 1060.00
82.4043 1020.00
82.4695 1016.00
82.5347 1023.00
82.5999 1076.00
82.6651 1015.00
82.7303 1105.00
82.7955 1061.00
82.8607 1065.00
82.9259 1047.00
82.9911 1072.00
83.0563 1114.00
83.1215 1209.00
83.1867 1085.00
83.2519 1062.00
83.3171 1096.00
83.3823 1080.00
83.4475 1118.00
83.5127 1084.00
83.5779 1084.00
83.6431 1089.00
83.7083 983.00
83.7735 1025.00
83.8387 1078.00
83.9039 1120.00
83.9691 1016.00
84.0343 1031.00
84.0995 1113.00
84.1647 1111.00
84.2299 1052.00
84.2951 1012.00
84.3603 1040.00
84.4255 1046.00
84.4907 1058.00
84.5559 1037.00
84.6211 1040.00
84.6863 1056.00
84.7515 1059.00
84.8167 1126.00
84.8819 1040.00
84.9471 1000.00
85.0123 1035.00
85.0775 1097.00
85.1427 1114.00
85.2079 1081.00
85.2731 1074.00
85.3383 1062.00
85.4035 1012.00
85.4687 1071.00
85.5339 1042.00
85.5991 1072.00
85.6643 1078.00
85.7295 1108.00
85.7946 1091.00
85.8598 1110.00
85.925 1109.00
85.9903 1140.00
86.0554 1132.00
86.1206 1148.00
86.1858 1119.00
86.251 1139.00
86.3162 1107.00
86.3814 1060.00
86.4466 1131.00
86.5118 1086.00
86.577 1051.00
86.6422 1117.00
86.7074 1092.00
86.7726 1123.00
86.8378 1093.00
86.903 1020.00
86.9682 1160.00
87.0334 1069.00
87.0986 1091.00
87.1638 1040.00
87.229 1140.00
87.2942 1187.00
87.3594 1236.00
87.4246 1347.00
87.4898 1190.00
87.555 1118.00
87.6202 1208.00
87.6854 1188.00
87.7506 1106.00
87.8158 1070.00
87.881 1155.00
87.9462 1082.00
88.0114 1127.00
88.0766 1090.00
88.1418 1076.00
88.207 1097.00
88.2722 1003.00
88.3374 1056.00
88.4026 1049.00
88.4678 1051.00
88.533 1066.00
88.5982 1058.00
88.6634 1078.00
88.7286 1023.00
88.7938 1163.00
88.859 1089.00
88.9242 1052.00
88.9894 1175.00
89.0546 1066.00
89.1198 1054.00
89.185 1080.00
89.2502 967.00
89.3154 1029.00
89.3806 1036.00
89.4458 1052.00
89.511 1096.00
89.5762 1098.00
89.6414 987.00
89.7066 1026.00
89.7718 1114.00
89.837 1119.00
89.9022 1058.00
89.9674 1019.00
90.0326 1049.00
90.0978 1065.00
90.163 1046.00
90.2282 1005.00
90.2934 1036.00
90.3586 1054.00
90.4238 1002.00
90.489 1071.00
90.5542 1040.00
90.6193 1189.00
90.6845 1355.00
90.7497 1165.00
90.8149 1084.00
90.8801 1167.00
90.9453 1151.00
91.0105 1149.00
91.0757 1089.00
91.1409 1097.00
91.2061 1050.00
91.2713 1106.00
91.3365 1124.00
91.4017 1048.00
91.4669 1043.00
91.5321 1072.00
91.5973 1104.00
91.6625 1111.00
91.7277 1140.00
91.7929 1090.00
91.8581 1174.00
91.9233 1289.00
91.9885 1184.00
92.0537 1274.00
92.1189 1201.00
92.1841 1145.00
92.2493 1202.00
92.3145 1206.00
92.3797 1129.00
92.4449 1127.00
92.5101 1149.00
92.5753 1092.00
92.6405 1044.00
92.7057 1109.00
92.7709 1072.00
92.8361 1083.00
92.9013 1072.00
92.9665 1093.00
93.0317 1242.00
93.0969 1141.00
93.1621 1061.00
93.2273 1126.00
93.2925 1119.00
93.3577 1136.00
93.4229 1119.00
93.4881 1147.00
93.5533 1111.00
93.6185 1051.00
93.6837 1050.00
93.7489 1128.00
93.8141 1132.00
93.8793 1145.00
93.9445 1104.00
94.0097 1205.00
94.0749 1181.00
94.1401 1184.00
94.2053 1127.00
94.2705 1117.00
94.3357 1149.00
94.4009 1084.00
94.4661 1105.00
94.5313 1060.00
94.5965 1093.00
94.6617 1107.00
94.7269 1041.00
94.7921 1156.00
94.8573 1055.00
94.9225 1075.00
94.9877 1113.00
95.0529 1089.00
95.1181 1084.00
95.1833 1063.00
95.2485 1057.00
95.3137 1135.00
95.3789 1089.00
95.444 1073.00
95.5092 1097.00
95.5744 1115.00
95.6396 1046.00
95.7048 1064.00
95.77 1066.00
95.8352 997.00
95.9004 1058.00
95.9656 1025.00
96.0308 1101.00
96.096 1042.00
96.1612 1026.00
96.2264 1124.00
96.2916 1081.00
96.3568 1088.00
96.422 1146.00
96.4872 1168.00
96.5524 1117.00
96.6176 1094.00
96.6828 1159.00
96.748 1273.00
96.8132 1152.00
96.8784 1169.00
96.9436 1112.00
97.0088 1184.00
97.074 1283.00
97.1392 1155.00
97.2044 1109.00
97.2696 1067.00
97.3348 1048.00
97.4 1125.00
97.4652 1097.00
97.5304 1057.00
97.5956 1035.00
97.6608 1084.00
97.726 1105.00
97.7912 1103.00
97.8564 1043.00
97.9216 1081.00
97.9868 1052.00
98.052 1034.00
98.1172 1021.00
98.1824 1082.00
98.2476 1028.00
98.3128 1023.00
98.378 1050.00
98.4432 1061.00
98.5084 1055.00
98.5736 1008.00
98.6388 1067.00
98.704 1081.00
98.7692 1114.00
98.8344 1093.00
98.8996 1069.00
98.9648 1043.00
99.03 1000.00
99.0952 1072.00
99.1604 1084.00
99.2256 1090.00
99.2908 1090.00
99.356 1072.00
99.4212 1197.00
99.4864 1218.00
99.5516 1117.00
99.6168 1056.00
99.682 1100.00
99.7472 1079.00
99.8124 1082.00
99.8776 1013.00
99.9428 1118.00
100.008 1069.00
100.073 1092.00
100.095 1089.00