File: data/xrd_creation/results/PG_2235-1.xy
9.903433 2604.00
9.968632 2603.00
10.0338 2538.00
10.099 2496.00
10.1642 2462.00
10.2294 2508.00
10.2946 2384.00
10.3598 2449.00
10.425 2424.00
10.4902 2381.00
10.5554 2282.00
10.6206 2341.00
10.6858 2279.00
10.751 2255.00
10.8162 2220.00
10.8814 2168.00
10.9466 2219.00
11.0118 2123.00
11.077 2120.00
11.1422 2179.00
11.2074 2044.00
11.2726 2120.00
11.3378 2037.00
11.403 2020.00
11.4682 1982.00
11.5334 1884.00
11.5986 2091.00
11.6638 1982.00
11.729 1924.00
11.7942 1867.00
11.8594 1884.00
11.9246 1984.00
11.9898 1857.00
12.055 1913.00
12.1202 1798.00
12.1854 1839.00
12.2506 1868.00
12.3158 1815.00
12.381 1719.00
12.4462 1703.00
12.5114 1731.00
12.5766 1742.00
12.6418 1783.00
12.707 1716.00
12.7722 1676.00
12.8374 1704.00
12.9026 1631.00
12.9678 1618.00
13.033 1578.00
13.0982 1608.00
13.1634 1655.00
13.2286 1548.00
13.2938 1580.00
13.359 1540.00
13.4242 1564.00
13.4894 1519.00
13.5546 1530.00
13.6198 1568.00
13.685 1493.00
13.7502 1450.00
13.8154 1445.00
13.8805 1495.00
13.9457 1464.00
14.0109 1504.00
14.0761 1458.00
14.1413 1418.00
14.2065 1387.00
14.2717 1457.00
14.3369 1361.00
14.4021 1466.00
14.4673 1396.00
14.5325 1350.00
14.5977 1362.00
14.6629 1306.00
14.7281 1323.00
14.7933 1350.00
14.8585 1374.00
14.9237 1409.00
14.9889 1338.00
15.0541 1352.00
15.1193 1370.00
15.1845 1253.00
15.2497 1298.00
15.3149 1284.00
15.3801 1347.00
15.4453 1386.00
15.5105 1301.00
15.5757 1262.00
15.6409 1232.00
15.7061 1275.00
15.7713 1303.00
15.8365 1227.00
15.9017 1248.00
15.9669 1260.00
16.0321 1204.00
16.0973 1219.00
16.1625 1224.00
16.2277 1301.00
16.2929 1235.00
16.3581 1216.00
16.4233 1235.00
16.4885 1211.00
16.5537 1159.00
16.6189 1235.00
16.6841 1162.00
16.7493 1169.00
16.8145 1169.00
16.8797 1141.00
16.9449 1150.00
17.0101 1146.00
17.0753 1190.00
17.1405 1098.00
17.2057 1207.00
17.2709 1092.00
17.3361 1137.00
17.4013 1068.00
17.4665 1139.00
17.5317 1140.00
17.5969 1121.00
17.6621 1050.00
17.7273 1064.00
17.7925 1093.00
17.8577 1123.00
17.9229 1127.00
17.9881 1071.00
18.0533 1067.00
18.1185 1090.00
18.1837 1061.00
18.2489 1063.00
18.3141 1056.00
18.3793 1009.00
18.4445 995.00
18.5097 998.00
18.5749 994.00
18.6401 989.00
18.7052 1007.00
18.7704 968.00
18.8356 959.00
18.9008 980.00
18.966 1010.00
19.0312 1019.00
19.0964 1035.00
19.1616 1002.00
19.2268 931.00
19.292 969.00
19.3572 976.00
19.4224 933.00
19.4876 940.00
19.5528 924.00
19.618 923.00
19.6832 984.00
19.7484 926.00
19.8136 937.00
19.8788 885.00
19.944 906.00
20.0092 902.00
20.0744 861.00
20.1396 875.00
20.2048 874.00
20.27 947.00
20.3352 936.00
20.4004 888.00
20.4656 883.00
20.5308 866.00
20.596 847.00
20.6612 929.00
20.7264 888.00
20.7916 928.00
20.8568 803.00
20.922 826.00
20.9872 872.00
21.0524 835.00
21.1176 829.00
21.1828 866.00
21.248 844.00
21.3132 880.00
21.3784 832.00
21.4436 840.00
21.5088 911.00
21.574 827.00
21.6392 809.00
21.7044 828.00
21.7696 793.00
21.8348 794.00
21.9 814.00
21.9652 770.00
22.0304 886.00
22.0956 772.00
22.1608 778.00
22.226 838.00
22.2912 807.00
22.3564 807.00
22.4216 795.00
22.4868 856.00
22.552 826.00
22.6172 783.00
22.6824 797.00
22.7476 806.00
22.8128 800.00
22.878 730.00
22.9432 845.00
23.0084 740.00
23.0736 748.00
23.1388 805.00
23.204 837.00
23.2692 777.00
23.3344 753.00
23.3996 748.00
23.4647 764.00
23.5299 741.00
23.5951 718.00
23.6603 760.00
23.7255 795.00
23.7907 721.00
23.8559 777.00
23.9211 718.00
23.9863 727.00
24.0515 724.00
24.1167 747.00
24.1819 691.00
24.2471 724.00
24.3123 724.00
24.3775 728.00
24.4427 731.00
24.5079 681.00
24.5731 659.00
24.6383 695.00
24.7035 671.00
24.7687 721.00
24.8339 667.00
24.8991 661.00
24.9643 704.00
25.0295 651.00
25.0947 716.00
25.1599 654.00
25.2251 721.00
25.2903 680.00
25.3555 736.00
25.4207 647.00
25.4859 693.00
25.5511 672.00
25.6163 626.00
25.6815 620.00
25.7467 667.00
25.8119 590.00
25.8771 648.00
25.9423 630.00
26.0075 632.00
26.0727 675.00
26.1379 673.00
26.2031 679.00
26.2683 614.00
26.3335 640.00
26.3987 658.00
26.4639 626.00
26.5291 670.00
26.5943 671.00
26.6595 659.00
26.7247 717.00
26.7899 611.00
26.8551 626.00
26.9203 637.00
26.9855 634.00
27.0507 567.00
27.1159 635.00
27.1811 630.00
27.2463 625.00
27.3115 656.00
27.3767 645.00
27.4419 563.00
27.5071 678.00
27.5723 604.00
27.6375 606.00
27.7027 597.00
27.7679 654.00
27.8331 620.00
27.8983 626.00
27.9635 679.00
28.0287 655.00
28.0939 602.00
28.1591 616.00
28.2243 618.00
28.2894 618.00
28.3546 618.00
28.4198 595.00
28.485 591.00
28.5502 591.00
28.6154 570.00
28.6806 590.00
28.7458 573.00
28.811 579.00
28.8762 631.00
28.9414 567.00
29.0066 603.00
29.0718 620.00
29.137 571.00
29.2022 586.00
29.2674 608.00
29.3326 561.00
29.3978 605.00
29.463 533.00
29.5282 586.00
29.5934 541.00
29.6586 588.00
29.7238 592.00
29.789 559.00
29.8542 541.00
29.9194 535.00
29.9846 519.00
30.0498 559.00
30.115 516.00
30.1802 533.00
30.2454 521.00
30.3106 570.00
30.3758 570.00
30.441 498.00
30.5062 492.00
30.5714 516.00
30.6366 569.00
30.7018 472.00
30.767 560.00
30.8322 480.00
30.8974 499.00
30.9626 547.00
31.0278 546.00
31.093 483.00
31.1582 514.00
31.2234 517.00
31.2886 525.00
31.3538 528.00
31.419 522.00
31.4842 487.00
31.5494 516.00
31.6146 525.00
31.6798 459.00
31.745 538.00
31.8102 492.00
31.8754 516.00
31.9406 505.00
32.0058 500.00
32.071 463.00
32.1362 468.00
32.2014 491.00
32.2666 498.00
32.3318 473.00
32.397 522.00
32.4622 475.00
32.5274 472.00
32.5926 483.00
32.6578 488.00
32.723 504.00
32.7882 474.00
32.8534 479.00
32.9186 500.00
32.9838 486.00
33.0489 520.00
33.1141 471.00
33.1793 464.00
33.2445 455.00
33.3097 446.00
33.3749 479.00
33.4401 465.00
33.5053 439.00
33.5705 430.00
33.6357 479.00
33.7009 487.00
33.7661 477.00
33.8313 469.00
33.8965 460.00
33.9617 431.00
34.0269 472.00
34.0921 417.00
34.1573 457.00
34.2225 432.00
34.2877 457.00
34.3529 451.00
34.4181 455.00
34.4833 424.00
34.5485 457.00
34.6137 431.00
34.6789 430.00
34.7441 417.00
34.8093 390.00
34.8745 424.00
34.9397 441.00
35.0049 460.00
35.0701 439.00
35.1353 441.00
35.2005 433.00
35.2657 442.00
35.3309 439.00
35.3961 403.00
35.4613 428.00
35.5265 438.00
35.5917 480.00
35.6569 437.00
35.7221 418.00
35.7873 412.00
35.8525 429.00
35.9177 410.00
35.9829 379.00
36.0481 363.00
36.1133 423.00
36.1785 465.00
36.2437 422.00
36.3089 365.00
36.3741 342.00
36.4393 422.00
36.5045 407.00
36.5697 399.00
36.6349 396.00
36.7001 400.00
36.7653 410.00
36.8305 406.00
36.8957 379.00
36.9609 361.00
37.0261 396.00
37.0913 408.00
37.1565 392.00
37.2217 373.00
37.2869 392.00
37.3521 393.00
37.4173 385.00
37.4825 392.00
37.5477 429.00
37.6129 389.00
37.6781 382.00
37.7433 411.00
37.8085 400.00
37.8736 423.00
37.9388 460.00
38.004 473.00
38.0692 408.00
38.1344 413.00
38.1996 387.00
38.2648 413.00
38.33 399.00
38.3952 369.00
38.4604 364.00
38.5256 357.00
38.5908 360.00
38.656 395.00
38.7212 391.00
38.7864 362.00
38.8516 352.00
38.9168 366.00
38.982 370.00
39.0472 360.00
39.1124 355.00
39.1776 327.00
39.2428 367.00
39.308 354.00
39.3732 377.00
39.4384 366.00
39.5036 336.00
39.5688 365.00
39.634 368.00
39.6992 359.00
39.7644 356.00
39.8296 323.00
39.8948 370.00
39.96 337.00
40.0252 304.00
40.0904 328.00
40.1556 356.00
40.2208 346.00
40.286 395.00
40.3512 331.00
40.4164 325.00
40.4816 329.00
40.5468 354.00
40.612 321.00
40.6772 328.00
40.7424 348.00
40.8076 333.00
40.8728 348.00
40.938 327.00
41.0032 350.00
41.0684 305.00
41.1336 325.00
41.1988 373.00
41.264 333.00
41.3292 320.00
41.3944 356.00
41.4596 310.00
41.5248 359.00
41.59 307.00
41.6552 316.00
41.7204 319.00
41.7856 313.00
41.8508 331.00
41.916 322.00
41.9812 325.00
42.0464 304.00
42.1116 343.00
42.1768 308.00
42.242 332.00
42.3072 328.00
42.3724 326.00
42.4376 331.00
42.5028 300.00
42.568 298.00
42.6332 337.00
42.6983 323.00
42.7635 353.00
42.8287 321.00
42.8939 327.00
42.9591 349.00
43.0243 323.00
43.0895 307.00
43.1547 308.00
43.2199 276.00
43.2851 311.00
43.3503 334.00
43.4155 302.00
43.4807 318.00
43.5459 315.00
43.6111 331.00
43.6763 334.00
43.7415 301.00
43.8067 311.00
43.8719 325.00
43.9371 339.00
44.0023 346.00
44.0675 313.00
44.1327 327.00
44.1979 348.00
44.2631 334.00
44.3283 311.00
44.3935 311.00
44.4587 301.00
44.5239 327.00
44.5891 286.00
44.6543 317.00
44.7195 305.00
44.7847 280.00
44.8499 309.00
44.9151 303.00
44.9803 301.00
45.0455 292.00
45.1107 263.00
45.1759 293.00
45.2411 281.00
45.3063 294.00
45.3715 275.00
45.4367 278.00
45.5019 331.00
45.5671 285.00
45.6323 286.00
45.6975 289.00
45.7627 266.00
45.8279 271.00
45.8931 274.00
45.9583 295.00
46.0235 287.00
46.0887 296.00
46.1539 297.00
46.2191 286.00
46.2843 322.00
46.3495 321.00
46.4147 264.00
46.4799 282.00
46.5451 265.00
46.6103 329.00
46.6755 294.00
46.7407 305.00
46.8059 276.00
46.8711 276.00
46.9363 264.00
47.0015 275.00
47.0667 278.00
47.1319 289.00
47.1971 244.00
47.2623 241.00
47.3275 278.00
47.3927 280.00
47.4579 283.00
47.523 238.00
47.5882 267.00
47.6534 262.00
47.7186 297.00
47.7838 271.00
47.849 302.00
47.9142 282.00
47.9794 243.00
48.0446 266.00
48.1098 280.00
48.175 240.00
48.2402 301.00
48.3054 298.00
48.3706 274.00
48.4358 272.00
48.501 288.00
48.5662 308.00
48.6314 272.00
48.6966 286.00
48.7618 293.00
48.827 257.00
48.8922 234.00
48.9574 266.00
49.0226 285.00
49.0878 272.00
49.153 261.00
49.2182 240.00
49.2834 290.00
49.3486 299.00
49.4138 250.00
49.479 281.00
49.5442 276.00
49.6094 276.00
49.6746 271.00
49.7398 231.00
49.805 258.00
49.8702 262.00
49.9354 245.00
50.0006 243.00
50.0658 243.00
50.131 277.00
50.1962 243.00
50.2614 268.00
50.3266 260.00
50.3918 238.00
50.457 262.00
50.5222 231.00
50.5874 281.00
50.6526 250.00
50.7178 257.00
50.783 276.00
50.8482 266.00
50.9134 291.00
50.9786 275.00
51.0438 277.00
51.109 261.00
51.1742 239.00
51.2394 270.00
51.3046 227.00
51.3698 263.00
51.435 239.00
51.5002 293.00
51.5654 262.00
51.6306 258.00
51.6958 240.00
51.761 243.00
51.8262 267.00
51.8914 243.00
51.9566 234.00
52.0218 256.00
52.087 276.00
52.1522 246.00
52.2174 233.00
52.2826 249.00
52.3477 228.00
52.4129 240.00
52.4781 266.00
52.5433 249.00
52.6085 233.00
52.6737 258.00
52.7389 238.00
52.8041 264.00
52.8693 244.00
52.9345 260.00
52.9997 248.00
53.0649 228.00
53.1301 247.00
53.1953 264.00
53.2605 236.00
53.3257 277.00
53.3909 248.00
53.4561 237.00
53.5213 228.00
53.5865 237.00
53.6517 272.00
53.7169 248.00
53.7821 262.00
53.8473 250.00
53.9125 225.00
53.9777 258.00
54.0429 237.00
54.1081 267.00
54.1733 231.00
54.2385 229.00
54.3037 231.00
54.3689 215.00
54.4341 221.00
54.4993 243.00
54.5645 229.00
54.6297 258.00
54.6949 218.00
54.7601 237.00
54.8253 265.00
54.8905 232.00
54.9557 214.00
55.0209 227.00
55.0861 224.00
55.1513 242.00
55.2165 256.00
55.2817 219.00
55.3469 243.00
55.4121 190.00
55.4773 239.00
55.5425 214.00
55.6077 201.00
55.6729 226.00
55.7381 226.00
55.8033 220.00
55.8685 233.00
55.9337 221.00
55.9989 239.00
56.0641 222.00
56.1293 214.00
56.1945 204.00
56.2597 213.00
56.3249 234.00
56.3901 220.00
56.4553 230.00
56.5205 203.00
56.5857 233.00
56.6509 239.00
56.7161 214.00
56.7813 216.00
56.8465 222.00
56.9117 229.00
56.9769 204.00
57.042 218.00
57.1073 205.00
57.1724 201.00
57.2376 226.00
57.3028 234.00
57.368 200.00
57.4332 213.00
57.4984 231.00
57.5636 204.00
57.6288 193.00
57.694 193.00
57.7592 225.00
57.8244 214.00
57.8896 222.00
57.9548 213.00
58.02 223.00
58.0852 267.00
58.1504 204.00
58.2156 207.00
58.2808 216.00
58.346 227.00
58.4112 212.00
58.4764 183.00
58.5416 202.00
58.6068 209.00
58.672 239.00
58.7372 220.00
58.8024 221.00
58.8676 209.00
58.9328 205.00
58.998 230.00
59.0632 196.00
59.1284 212.00
59.1936 240.00
59.2588 239.00
59.324 189.00
59.3892 201.00
59.4544 237.00
59.5196 199.00
59.5848 198.00
59.65 200.00
59.7152 205.00
59.7804 205.00
59.8456 205.00
59.9108 184.00
59.976 202.00
60.0412 190.00
60.1064 209.00
60.1716 185.00
60.2368 206.00
60.302 208.00
60.3672 224.00
60.4324 189.00
60.4976 189.00
60.5628 188.00
60.628 180.00
60.6932 185.00
60.7584 196.00
60.8236 198.00
60.8888 204.00
60.954 196.00
61.0192 198.00
61.0844 186.00
61.1496 176.00
61.2148 200.00
61.28 191.00
61.3452 215.00
61.4104 210.00
61.4756 199.00
61.5408 206.00
61.606 181.00
61.6712 187.00
61.7364 198.00
61.8016 167.00
61.8667 200.00
61.932 170.00
61.9971 187.00
62.0623 207.00
62.1275 201.00
62.1927 203.00
62.2579 229.00
62.3231 196.00
62.3883 202.00
62.4535 227.00
62.5187 193.00
62.5839 205.00
62.6491 194.00
62.7143 181.00
62.7795 186.00
62.8447 204.00
62.9099 184.00
62.9751 218.00
63.0403 175.00
63.1055 194.00
63.1707 210.00
63.2359 228.00
63.3011 190.00
63.3663 171.00
63.4315 196.00
63.4967 203.00
63.5619 200.00
63.6271 214.00
63.6923 177.00
63.7575 191.00
63.8227 197.00
63.8879 196.00
63.9531 186.00
64.0183 207.00
64.0835 201.00
64.1487 203.00
64.2139 173.00
64.2791 210.00
64.3443 233.00
64.4095 200.00
64.4747 203.00
64.5399 176.00
64.6051 186.00
64.6703 198.00
64.7355 206.00
64.8007 197.00
64.8659 193.00
64.9311 191.00
64.9963 203.00
65.0615 178.00
65.1267 217.00
65.1919 172.00
65.2571 180.00
65.3223 179.00
65.3875 178.00
65.4527 188.00
65.5179 195.00
65.5831 170.00
65.6483 189.00
65.7135 197.00
65.7787 183.00
65.8439 175.00
65.9091 215.00
65.9743 184.00
66.0395 194.00
66.1047 201.00
66.1699 188.00
66.2351 195.00
66.3003 157.00
66.3655 225.00
66.4307 180.00
66.4959 206.00
66.561 188.00
66.6263 191.00
66.6915 166.00
66.7566 181.00
66.8218 170.00
66.887 171.00
66.9522 203.00
67.0174 175.00
67.0826 197.00
67.1478 213.00
67.213 178.00
67.2782 176.00
67.3434 181.00
67.4086 165.00
67.4738 197.00
67.539 154.00
67.6042 173.00
67.6694 205.00
67.7346 189.00
67.7998 181.00
67.865 204.00
67.9302 193.00
67.9954 178.00
68.0606 193.00
68.1258 171.00
68.191 191.00
68.2562 181.00
68.3214 166.00
68.3866 190.00
68.4518 163.00
68.517 198.00
68.5822 153.00
68.6474 199.00
68.7126 173.00
68.7778 176.00
68.843 192.00
68.9082 169.00
68.9734 180.00
69.0386 192.00
69.1038 201.00
69.169 197.00
69.2342 197.00
69.2994 184.00
69.3646 187.00
69.4298 180.00
69.495 171.00
69.5602 181.00
69.6254 195.00
69.6906 200.00
69.7558 191.00
69.821 180.00
69.8862 180.00
69.9514 189.00
70.0166 185.00
70.0818 173.00
70.147 209.00
70.2122 181.00
70.2774 194.00
70.3426 163.00
70.4078 162.00
70.473 189.00
70.5382 180.00
70.6034 192.00
70.6686 184.00
70.7338 210.00
70.799 190.00
70.8642 196.00
70.9294 185.00
70.9946 154.00
71.0598 178.00
71.125 205.00
71.1902 211.00
71.2554 179.00
71.3205 184.00
71.3858 195.00
71.451 182.00
71.5162 175.00
71.5813 195.00
71.6465 183.00
71.7117 186.00
71.7769 206.00
71.8421 206.00
71.9073 186.00
71.9725 173.00
72.0377 149.00
72.1029 206.00
72.1681 175.00
72.2333 173.00
72.2985 187.00
72.3637 183.00
72.4289 211.00
72.4941 186.00
72.5593 180.00
72.6245 195.00
72.6897 181.00
72.7549 187.00
72.8201 216.00
72.8853 173.00
72.9505 189.00
73.0157 196.00
73.0809 198.00
73.1461 184.00
73.2113 197.00
73.2765 199.00
73.3417 212.00
73.4069 182.00
73.4721 214.00
73.5373 207.00
73.6025 216.00
73.6677 184.00
73.7329 179.00
73.7981 206.00
73.8633 184.00
73.9285 189.00
73.9937 188.00
74.0589 178.00
74.1241 187.00
74.1893 201.00
74.2545 173.00
74.3197 172.00
74.3849 206.00
74.4501 200.00
74.5153 179.00
74.5805 197.00
74.6457 191.00
74.7109 220.00
74.7761 215.00
74.8413 201.00
74.9065 175.00
74.9717 187.00
75.0369 179.00
75.1021 213.00
75.1673 176.00
75.2325 189.00
75.2977 190.00
75.3629 176.00
75.4281 194.00
75.4933 232.00
75.5585 169.00
75.6237 191.00
75.6889 193.00
75.7541 195.00
75.8193 201.00
75.8845 207.00
75.9497 206.00
76.0149 216.00
76.0801 192.00
76.1452 208.00
76.2104 217.00
76.2756 206.00
76.3409 188.00
76.406 198.00
76.4712 176.00
76.5364 202.00
76.6016 206.00
76.6668 212.00
76.732 233.00
76.7972 194.00
76.8624 211.00
76.9276 210.00
76.9928 191.00
77.058 221.00
77.1232 219.00
77.1884 217.00
77.2536 230.00
77.3188 220.00
77.384 193.00
77.4492 190.00
77.5144 220.00
77.5796 224.00
77.6448 217.00
77.71 206.00
77.7752 169.00
77.8404 228.00
77.9056 236.00
77.9708 199.00
78.036 203.00
78.1012 234.00
78.1664 188.00
78.2316 246.00
78.2968 220.00
78.362 202.00
78.4272 214.00
78.4924 214.00
78.5576 228.00
78.6228 213.00
78.688 199.00
78.7532 237.00
78.8184 231.00
78.8836 209.00
78.9488 241.00
79.014 226.00
79.0792 221.00
79.1444 228.00
79.2096 230.00
79.2748 209.00
79.34 192.00
79.4052 217.00
79.4704 230.00
79.5356 207.00
79.6008 216.00
79.666 212.00
79.7312 211.00
79.7964 187.00
79.8616 219.00
79.9268 229.00
79.992 209.00
80.0572 189.00
80.1224 215.00
80.1876 215.00
80.2528 226.00
80.318 191.00
80.3832 220.00
80.4484 211.00
80.5136 246.00
80.5788 219.00
80.644 211.00
80.7092 233.00
80.7744 202.00
80.8396 231.00
80.9048 204.00
80.9699 248.00
81.0351 186.00
81.1003 192.00
81.1655 231.00
81.2307 217.00
81.2959 264.00
81.3611 235.00
81.4263 228.00
81.4915 214.00
81.5567 245.00
81.6219 222.00
81.6871 232.00
81.7523 235.00
81.8175 203.00
81.8827 234.00
81.9479 223.00
82.0131 187.00
82.0783 247.00
82.1435 223.00
82.2087 205.00
82.2739 217.00
82.3391 218.00
82.4043 220.00
82.4695 244.00
82.5347 232.00
82.5999 219.00
82.6651 220.00
82.7303 217.00
82.7955 213.00
82.8607 256.00
82.9259 223.00
82.9911 222.00
83.0563 251.00
83.1215 218.00
83.1867 217.00
83.2519 227.00
83.3171 211.00
83.3823 201.00
83.4475 211.00
83.5127 214.00
83.5779 227.00
83.6431 208.00
83.7083 214.00
83.7735 224.00
83.8387 211.00
83.9039 223.00
83.9691 215.00
84.0343 236.00
84.0995 197.00
84.1647 248.00
84.2299 216.00
84.2951 237.00
84.3603 213.00
84.4255 194.00
84.4907 230.00
84.5559 211.00
84.6211 206.00
84.6863 231.00
84.7515 215.00
84.8167 201.00
84.8819 222.00
84.9471 206.00
85.0123 220.00
85.0775 186.00
85.1427 195.00
85.2079 191.00
85.2731 213.00
85.3383 205.00
85.4035 193.00
85.4687 216.00
85.5339 227.00
85.5991 221.00
85.6643 206.00
85.7295 192.00
85.7946 209.00
85.8598 180.00
85.925 217.00
85.9903 194.00
86.0554 192.00
86.1206 189.00
86.1858 215.00
86.251 211.00
86.3162 203.00
86.3814 203.00
86.4466 197.00
86.5118 203.00
86.577 217.00
86.6422 195.00
86.7074 197.00
86.7726 197.00
86.8378 183.00
86.903 177.00
86.9682 198.00
87.0334 201.00
87.0986 226.00
87.1638 171.00
87.229 208.00
87.2942 213.00
87.3594 199.00
87.4246 222.00
87.4898 197.00
87.555 226.00
87.6202 221.00
87.6854 218.00
87.7506 210.00
87.8158 180.00
87.881 175.00
87.9462 202.00
88.0114 188.00
88.0766 218.00
88.1418 197.00
88.207 219.00
88.2722 211.00
88.3374 217.00
88.4026 190.00
88.4678 213.00
88.533 185.00
88.5982 199.00
88.6634 186.00
88.7286 186.00
88.7938 186.00
88.859 170.00
88.9242 193.00
88.9894 180.00
89.0546 173.00
89.1198 207.00
89.185 208.00
89.2502 171.00
89.3154 222.00
89.3806 193.00
89.4458 186.00
89.511 207.00
89.5762 182.00
89.6414 181.00
89.7066 191.00
89.7718 172.00
89.837 194.00
89.9022 204.00
89.9674 181.00
90.0326 196.00
90.0978 190.00
90.163 213.00
90.2282 190.00
90.2934 154.00
90.3586 177.00
90.4238 169.00
90.489 215.00
90.5542 188.00
90.6193 190.00
90.6845 183.00
90.7497 193.00
90.8149 197.00
90.8801 188.00
90.9453 184.00
91.0105 191.00
91.0757 179.00
91.1409 203.00
91.2061 179.00
91.2713 194.00
91.3365 183.00
91.4017 186.00
91.4669 158.00
91.5321 177.00
91.5973 177.00
91.6625 186.00
91.7277 180.00
91.7929 199.00
91.8581 189.00
91.9233 190.00
91.9885 205.00
92.0537 209.00
92.1189 195.00
92.1841 190.00
92.2493 193.00
92.3145 186.00
92.3797 179.00
92.4449 179.00
92.5101 186.00
92.5753 167.00
92.6405 187.00
92.7057 182.00
92.7709 177.00
92.8361 190.00
92.9013 200.00
92.9665 199.00
93.0317 173.00
93.0969 182.00
93.1621 170.00
93.2273 173.00
93.2925 186.00
93.3577 180.00
93.4229 184.00
93.4881 178.00
93.5533 206.00
93.6185 182.00
93.6837 194.00
93.7489 177.00
93.8141 182.00
93.8793 175.00
93.9445 182.00
94.0097 171.00
94.0749 184.00
94.1401 177.00
94.2053 159.00
94.2705 226.00
94.3357 166.00
94.4009 181.00
94.4661 204.00
94.5313 183.00
94.5965 173.00
94.6617 163.00
94.7269 194.00
94.7921 161.00
94.8573 206.00
94.9225 182.00
94.9877 180.00
95.0529 192.00
95.1181 187.00
95.1833 187.00
95.2485 183.00
95.3137 190.00
95.3789 210.00
95.444 193.00
95.5092 186.00
95.5744 188.00
95.6396 197.00
95.7048 171.00
95.77 172.00
95.8352 191.00
95.9004 213.00
95.9656 179.00
96.0308 181.00
96.096 181.00
96.1612 171.00
96.2264 185.00
96.2916 186.00
96.3568 163.00
96.422 183.00
96.4872 181.00
96.5524 188.00
96.6176 185.00
96.6828 168.00
96.748 175.00
96.8132 213.00
96.8784 197.00
96.9436 151.00
97.0088 183.00
97.074 196.00
97.1392 161.00
97.2044 217.00
97.2696 145.00
97.3348 165.00
97.4 194.00
97.4652 188.00
97.5304 189.00
97.5956 192.00
97.6608 189.00
97.726 181.00
97.7912 178.00
97.8564 174.00
97.9216 186.00
97.9868 191.00
98.052 145.00
98.1172 200.00
98.1824 183.00
98.2476 175.00
98.3128 172.00
98.378 170.00
98.4432 173.00
98.5084 201.00
98.5736 181.00
98.6388 192.00
98.704 182.00
98.7692 194.00
98.8344 193.00
98.8996 183.00
98.9648 184.00
99.03 157.00
99.0952 170.00
99.1604 167.00
99.2256 191.00
99.2908 158.00
99.356 163.00
99.4212 192.00
99.4864 178.00
99.5516 161.00
99.6168 159.00
99.682 171.00
99.7472 180.00
99.8124 178.00
99.8776 170.00
99.9428 180.00
100.008 177.00
100.073 158.00
100.095 206.00