File: data/xrd_creation/results/PG_2147-1.xy
9.903433 2475.00
9.968632 2514.00
10.0338 2584.00
10.099 2544.00
10.1642 2366.00
10.2294 2447.00
10.2946 2380.00
10.3598 2450.00
10.425 2364.00
10.4902 2399.00
10.5554 2302.00
10.6206 2433.00
10.6858 2369.00
10.751 2290.00
10.8162 2262.00
10.8814 2312.00
10.9466 2312.00
11.0118 2217.00
11.077 2234.00
11.1422 2156.00
11.2074 2205.00
11.2726 2236.00
11.3378 2139.00
11.403 2122.00
11.4682 2182.00
11.5334 2166.00
11.5986 2076.00
11.6638 2065.00
11.729 2063.00
11.7942 2104.00
11.8594 2023.00
11.9246 2054.00
11.9898 2016.00
12.055 2006.00
12.1202 1948.00
12.1854 2017.00
12.2506 1915.00
12.3158 1972.00
12.381 1950.00
12.4462 1832.00
12.5114 1934.00
12.5766 1912.00
12.6418 1881.00
12.707 1871.00
12.7722 1878.00
12.8374 1866.00
12.9026 1830.00
12.9678 1853.00
13.033 1805.00
13.0982 1798.00
13.1634 1816.00
13.2286 1870.00
13.2938 1773.00
13.359 1842.00
13.4242 1797.00
13.4894 1720.00
13.5546 1736.00
13.6198 1756.00
13.685 1777.00
13.7502 1709.00
13.8154 1750.00
13.8805 1702.00
13.9457 1677.00
14.0109 1788.00
14.0761 1661.00
14.1413 1672.00
14.2065 1687.00
14.2717 1573.00
14.3369 1689.00
14.4021 1713.00
14.4673 1698.00
14.5325 1691.00
14.5977 1690.00
14.6629 1677.00
14.7281 1659.00
14.7933 1661.00
14.8585 1712.00
14.9237 1673.00
14.9889 1617.00
15.0541 1650.00
15.1193 1633.00
15.1845 1708.00
15.2497 1763.00
15.3149 1758.00
15.3801 1736.00
15.4453 1865.00
15.5105 1952.00
15.5757 2189.00
15.6409 2348.00
15.7061 2708.00
15.7713 3463.00
15.8365 4557.00
15.9017 6410.00
15.9669 8349.00
16.0321 8260.00
16.0973 6100.00
16.1625 3820.00
16.2277 2697.00
16.2929 2287.00
16.3581 1890.00
16.4233 1954.00
16.4885 1801.00
16.5537 1760.00
16.6189 1620.00
16.6841 1548.00
16.7493 1570.00
16.8145 1595.00
16.8797 1540.00
16.9449 1600.00
17.0101 1611.00
17.0753 1563.00
17.1405 1477.00
17.2057 1456.00
17.2709 1526.00
17.3361 1485.00
17.4013 1442.00
17.4665 1441.00
17.5317 1466.00
17.5969 1453.00
17.6621 1462.00
17.7273 1500.00
17.7925 1414.00
17.8577 1446.00
17.9229 1424.00
17.9881 1378.00
18.0533 1425.00
18.1185 1412.00
18.1837 1318.00
18.2489 1378.00
18.3141 1395.00
18.3793 1268.00
18.4445 1316.00
18.5097 1342.00
18.5749 1344.00
18.6401 1377.00
18.7052 1310.00
18.7704 1306.00
18.8356 1319.00
18.9008 1277.00
18.966 1299.00
19.0312 1269.00
19.0964 1236.00
19.1616 1269.00
19.2268 1267.00
19.292 1267.00
19.3572 1183.00
19.4224 1293.00
19.4876 1325.00
19.5528 1261.00
19.618 1255.00
19.6832 1228.00
19.7484 1239.00
19.8136 1212.00
19.8788 1208.00
19.944 1215.00
20.0092 1197.00
20.0744 1200.00
20.1396 1248.00
20.2048 1220.00
20.27 1219.00
20.3352 1157.00
20.4004 1208.00
20.4656 1167.00
20.5308 1207.00
20.596 1145.00
20.6612 1187.00
20.7264 1184.00
20.7916 1166.00
20.8568 1142.00
20.922 1244.00
20.9872 1194.00
21.0524 1140.00
21.1176 1089.00
21.1828 1180.00
21.248 1138.00
21.3132 1166.00
21.3784 1147.00
21.4436 1181.00
21.5088 1170.00
21.574 1082.00
21.6392 1137.00
21.7044 1205.00
21.7696 1120.00
21.8348 1115.00
21.9 1166.00
21.9652 1119.00
22.0304 1137.00
22.0956 1109.00
22.1608 1070.00
22.226 1090.00
22.2912 1132.00
22.3564 1145.00
22.4216 1080.00
22.4868 1075.00
22.552 1053.00
22.6172 1022.00
22.6824 1023.00
22.7476 1090.00
22.8128 1072.00
22.878 1057.00
22.9432 1054.00
23.0084 1057.00
23.0736 1006.00
23.1388 990.00
23.204 1064.00
23.2692 1013.00
23.3344 984.00
23.3996 1049.00
23.4647 1015.00
23.5299 1034.00
23.5951 948.00
23.6603 1025.00
23.7255 1036.00
23.7907 1040.00
23.8559 999.00
23.9211 971.00
23.9863 988.00
24.0515 1005.00
24.1167 993.00
24.1819 1039.00
24.2471 1031.00
24.3123 1016.00
24.3775 1007.00
24.4427 1065.00
24.5079 1190.00
24.5731 1445.00
24.6383 1958.00
24.7035 2245.00
24.7687 1588.00
24.8339 1129.00
24.8991 949.00
24.9643 1001.00
25.0295 990.00
25.0947 950.00
25.1599 984.00
25.2251 999.00
25.2903 985.00
25.3555 957.00
25.4207 922.00
25.4859 982.00
25.5511 990.00
25.6163 941.00
25.6815 942.00
25.7467 1003.00
25.8119 923.00
25.8771 900.00
25.9423 928.00
26.0075 931.00
26.0727 915.00
26.1379 962.00
26.2031 947.00
26.2683 968.00
26.3335 919.00
26.3987 907.00
26.4639 951.00
26.5291 959.00
26.5943 1033.00
26.6595 951.00
26.7247 1005.00
26.7899 1011.00
26.8551 1026.00
26.9203 994.00
26.9855 1052.00
27.0507 1092.00
27.1159 1211.00
27.1811 1276.00
27.2463 1491.00
27.3115 1748.00
27.3767 2194.00
27.4419 3092.00
27.5071 4422.00
27.5723 6473.00
27.6375 7366.00
27.7027 6364.00
27.7679 4675.00
27.8331 3244.00
27.8983 2488.00
27.9635 2257.00
28.0287 2478.00
28.0939 2976.00
28.1591 4384.00
28.2243 6604.00
28.2894 9084.00
28.3546 9981.00
28.4198 7805.00
28.485 4827.00
28.5502 3042.00
28.6154 2166.00
28.6806 1604.00
28.7458 1425.00
28.811 1307.00
28.8762 1203.00
28.9414 1082.00
29.0066 1057.00
29.0718 1002.00
29.137 986.00
29.2022 944.00
29.2674 903.00
29.3326 956.00
29.3978 937.00
29.463 913.00
29.5282 870.00
29.5934 824.00
29.6586 892.00
29.7238 853.00
29.789 866.00
29.8542 841.00
29.9194 864.00
29.9846 888.00
30.0498 843.00
30.115 824.00
30.1802 776.00
30.2454 813.00
30.3106 838.00
30.3758 867.00
30.441 807.00
30.5062 770.00
30.5714 827.00
30.6366 758.00
30.7018 770.00
30.767 798.00
30.8322 820.00
30.8974 807.00
30.9626 838.00
31.0278 764.00
31.093 788.00
31.1582 870.00
31.2234 843.00
31.2886 769.00
31.3538 806.00
31.419 805.00
31.4842 830.00
31.5494 921.00
31.6146 943.00
31.6798 1015.00
31.745 1201.00
31.8102 1502.00
31.8754 1975.00
31.9406 2320.00
32.0058 2183.00
32.071 1756.00
32.1362 1292.00
32.2014 1108.00
32.2666 928.00
32.3318 858.00
32.397 786.00
32.4622 785.00
32.5274 781.00
32.5926 756.00
32.6578 730.00
32.723 744.00
32.7882 704.00
32.8534 703.00
32.9186 733.00
32.9838 758.00
33.0489 821.00
33.1141 828.00
33.1793 939.00
33.2445 1258.00
33.3097 2000.00
33.3749 2614.00
33.4401 1972.00
33.5053 1121.00
33.5705 810.00
33.6357 764.00
33.7009 758.00
33.7661 697.00
33.8313 678.00
33.8965 700.00
33.9617 658.00
34.0269 685.00
34.0921 628.00
34.1573 666.00
34.2225 650.00
34.2877 617.00
34.3529 660.00
34.4181 663.00
34.4833 667.00
34.5485 662.00
34.6137 708.00
34.6789 618.00
34.7441 611.00
34.8093 635.00
34.8745 675.00
34.9397 679.00
35.0049 627.00
35.0701 669.00
35.1353 660.00
35.2005 646.00
35.2657 672.00
35.3309 637.00
35.3961 677.00
35.4613 680.00
35.5265 605.00
35.5917 639.00
35.6569 600.00
35.7221 615.00
35.7873 696.00
35.8525 692.00
35.9177 662.00
35.9829 669.00
36.0481 750.00
36.1133 777.00
36.1785 838.00
36.2437 1004.00
36.3089 1177.00
36.3741 1272.00
36.4393 1330.00
36.5045 1395.00
36.5697 1960.00
36.6349 1997.00
36.7001 1470.00
36.7653 876.00
36.8305 709.00
36.8957 685.00
36.9609 659.00
37.0261 659.00
37.0913 662.00
37.1565 584.00
37.2217 578.00
37.2869 589.00
37.3521 597.00
37.4173 577.00
37.4825 584.00
37.5477 583.00
37.6129 591.00
37.6781 608.00
37.7433 601.00
37.8085 582.00
37.8736 593.00
37.9388 587.00
38.004 554.00
38.0692 592.00
38.1344 634.00
38.1996 596.00
38.2648 619.00
38.33 574.00
38.3952 584.00
38.4604 644.00
38.5256 605.00
38.5908 627.00
38.656 647.00
38.7212 663.00
38.7864 696.00
38.8516 719.00
38.9168 808.00
38.982 764.00
39.0472 759.00
39.1124 737.00
39.1776 744.00
39.2428 834.00
39.308 867.00
39.3732 1016.00
39.4384 1166.00
39.5036 1528.00
39.5688 1933.00
39.634 2805.00
39.6992 3991.00
39.7644 5572.00
39.8296 6589.00
39.8948 5790.00
39.96 4321.00
40.0252 3056.00
40.0904 2100.00
40.1556 1563.00
40.2208 1232.00
40.286 1090.00
40.3512 935.00
40.4164 797.00
40.4816 698.00
40.5468 729.00
40.612 691.00
40.6772 651.00
40.7424 643.00
40.8076 621.00
40.8728 603.00
40.938 616.00
41.0032 595.00
41.0684 587.00
41.1336 597.00
41.1988 613.00
41.264 637.00
41.3292 576.00
41.3944 608.00
41.4596 695.00
41.5248 992.00
41.59 1257.00
41.6552 989.00
41.7204 856.00
41.7856 669.00
41.8508 547.00
41.916 620.00
41.9812 601.00
42.0464 640.00
42.1116 667.00
42.1768 703.00
42.242 699.00
42.3072 785.00
42.3724 947.00
42.4376 1168.00
42.5028 1469.00
42.568 1530.00
42.6332 1494.00
42.6983 1298.00
42.7635 1134.00
42.8287 874.00
42.8939 759.00
42.9591 705.00
43.0243 601.00
43.0895 620.00
43.1547 598.00
43.2199 553.00
43.2851 582.00
43.3503 539.00
43.4155 560.00
43.4807 503.00
43.5459 591.00
43.6111 554.00
43.6763 563.00
43.7415 492.00
43.8067 552.00
43.8719 499.00
43.9371 552.00
44.0023 512.00
44.0675 525.00
44.1327 499.00
44.1979 534.00
44.2631 517.00
44.3283 487.00
44.3935 550.00
44.4587 562.00
44.5239 547.00
44.5891 589.00
44.6543 528.00
44.7195 532.00
44.7847 577.00
44.8499 528.00
44.9151 469.00
44.9803 462.00
45.0455 516.00
45.1107 489.00
45.1759 471.00
45.2411 466.00
45.3063 469.00
45.3715 494.00
45.4367 538.00
45.5019 488.00
45.5671 531.00
45.6323 458.00
45.6975 487.00
45.7627 466.00
45.8279 501.00
45.8931 483.00
45.9583 452.00
46.0235 477.00
46.0887 524.00
46.1539 482.00
46.2191 482.00
46.2843 521.00
46.3495 518.00
46.4147 515.00
46.4799 462.00
46.5451 535.00
46.6103 498.00
46.6755 512.00
46.7407 539.00
46.8059 554.00
46.8711 531.00
46.9363 555.00
47.0015 603.00
47.0667 626.00
47.1319 644.00
47.1971 747.00
47.2623 863.00
47.3275 1167.00
47.3927 1458.00
47.4579 1459.00
47.523 1386.00
47.5882 1221.00
47.6534 928.00
47.7186 800.00
47.7838 720.00
47.849 743.00
47.9142 726.00
47.9794 689.00
48.0446 714.00
48.1098 856.00
48.175 939.00
48.2402 1026.00
48.3054 1265.00
48.3706 1631.00
48.4358 2155.00
48.501 2558.00
48.5662 2918.00
48.6314 3032.00
48.6966 2830.00
48.7618 3075.00
48.827 3615.00
48.8922 4276.00
48.9574 5169.00
49.0226 5079.00
49.0878 4452.00
49.153 3434.00
49.2182 2620.00
49.2834 1844.00
49.3486 1484.00
49.4138 1193.00
49.479 963.00
49.5442 864.00
49.6094 814.00
49.6746 673.00
49.7398 687.00
49.805 733.00
49.8702 686.00
49.9354 687.00
50.0006 748.00
50.0658 943.00
50.131 1455.00
50.1962 1614.00
50.2614 1531.00
50.3266 1390.00
50.3918 1038.00
50.457 893.00
50.5222 771.00
50.5874 662.00
50.6526 591.00
50.7178 596.00
50.783 543.00
50.8482 521.00
50.9134 505.00
50.9786 505.00
51.0438 503.00
51.109 484.00
51.1742 520.00
51.2394 481.00
51.3046 448.00
51.3698 467.00
51.435 471.00
51.5002 456.00
51.5654 483.00
51.6306 469.00
51.6958 456.00
51.761 491.00
51.8262 467.00
51.8914 462.00
51.9566 461.00
52.0218 431.00
52.087 419.00
52.1522 450.00
52.2174 455.00
52.2826 461.00
52.3477 419.00
52.4129 416.00
52.4781 441.00
52.5433 467.00
52.6085 441.00
52.6737 425.00
52.7389 426.00
52.8041 468.00
52.8693 452.00
52.9345 459.00
52.9997 468.00
53.0649 397.00
53.1301 495.00
53.1953 450.00
53.2605 434.00
53.3257 464.00
53.3909 418.00
53.4561 419.00
53.5213 465.00
53.5865 438.00
53.6517 389.00
53.7169 484.00
53.7821 485.00
53.8473 494.00
53.9125 482.00
53.9777 491.00
54.0429 538.00
54.1081 622.00
54.1733 1034.00
54.2385 1789.00
54.3037 1895.00
54.3689 1426.00
54.4341 1306.00
54.4993 772.00
54.5645 630.00
54.6297 516.00
54.6949 501.00
54.7601 469.00
54.8253 501.00
54.8905 449.00
54.9557 519.00
55.0209 516.00
55.0861 522.00
55.1513 511.00
55.2165 626.00
55.2817 704.00
55.3469 800.00
55.4121 899.00
55.4773 1181.00
55.5425 1528.00
55.6077 1704.00
55.6729 1675.00
55.7381 1494.00
55.8033 1174.00
55.8685 947.00
55.9337 775.00
55.9989 750.00
56.0641 641.00
56.1293 615.00
56.1945 582.00
56.2597 674.00
56.3249 617.00
56.3901 730.00
56.4553 816.00
56.5205 932.00
56.5857 1086.00
56.6509 1045.00
56.7161 1027.00
56.7813 907.00
56.8465 782.00
56.9117 685.00
56.9769 609.00
57.042 537.00
57.1073 555.00
57.1724 490.00
57.2376 451.00
57.3028 467.00
57.368 483.00
57.4332 456.00
57.4984 429.00
57.5636 395.00
57.6288 473.00
57.694 459.00
57.7592 438.00
57.8244 466.00
57.8896 482.00
57.9548 562.00
58.02 636.00
58.0852 724.00
58.1504 751.00
58.2156 707.00
58.2808 683.00
58.346 643.00
58.4112 579.00
58.4764 519.00
58.5416 501.00
58.6068 515.00
58.672 578.00
58.7372 600.00
58.8024 559.00
58.8676 584.00
58.9328 635.00
58.998 648.00
59.0632 711.00
59.1284 698.00
59.1936 683.00
59.2588 676.00
59.324 615.00
59.3892 524.00
59.4544 528.00
59.5196 474.00
59.5848 446.00
59.65 467.00
59.7152 417.00
59.7804 399.00
59.8456 379.00
59.9108 394.00
59.976 391.00
60.0412 392.00
60.1064 367.00
60.1716 388.00
60.2368 372.00
60.302 376.00
60.3672 349.00
60.4324 364.00
60.4976 378.00
60.5628 398.00
60.628 343.00
60.6932 384.00
60.7584 395.00
60.8236 332.00
60.8888 368.00
60.954 374.00
61.0192 384.00
61.0844 367.00
61.1496 372.00
61.2148 388.00
61.28 357.00
61.3452 352.00
61.4104 388.00
61.4756 370.00
61.5408 349.00
61.606 316.00
61.6712 341.00
61.7364 391.00
61.8016 382.00
61.8667 387.00
61.932 344.00
61.9971 367.00
62.0623 395.00
62.1275 376.00
62.1927 351.00
62.2579 388.00
62.3231 403.00
62.3883 371.00
62.4535 377.00
62.5187 378.00
62.5839 377.00
62.6491 387.00
62.7143 395.00
62.7795 371.00
62.8447 394.00
62.9099 373.00
62.9751 452.00
63.0403 377.00
63.1055 403.00
63.1707 415.00
63.2359 434.00
63.3011 447.00
63.3663 533.00
63.4315 700.00
63.4967 754.00
63.5619 612.00
63.6271 663.00
63.6923 598.00
63.7575 513.00
63.8227 492.00
63.8879 561.00
63.9531 644.00
64.0183 673.00
64.0835 731.00
64.1487 990.00
64.2139 1217.00
64.2791 1377.00
64.3443 1349.00
64.4095 1324.00
64.4747 1213.00
64.5399 1088.00
64.6051 969.00
64.6703 803.00
64.7355 666.00
64.8007 643.00
64.8659 594.00
64.9311 542.00
64.9963 522.00
65.0615 562.00
65.1267 611.00
65.1919 616.00
65.2571 694.00
65.3223 753.00
65.3875 877.00
65.4527 1025.00
65.5179 1205.00
65.5831 1003.00
65.6483 825.00
65.7135 820.00
65.7787 621.00
65.8439 548.00
65.9091 480.00
65.9743 486.00
66.0395 446.00
66.1047 509.00
66.1699 527.00
66.2351 525.00
66.3003 498.00
66.3655 517.00
66.4307 457.00
66.4959 418.00
66.561 479.00
66.6263 444.00
66.6915 498.00
66.7566 426.00
66.8218 407.00
66.887 362.00
66.9522 377.00
67.0174 387.00
67.0826 385.00
67.1478 403.00
67.213 361.00
67.2782 306.00
67.3434 340.00
67.4086 352.00
67.4738 358.00
67.539 356.00
67.6042 352.00
67.6694 356.00
67.7346 357.00
67.7998 343.00
67.865 325.00
67.9302 369.00
67.9954 380.00
68.0606 375.00
68.1258 351.00
68.191 368.00
68.2562 351.00
68.3214 365.00
68.3866 384.00
68.4518 389.00
68.517 361.00
68.5822 354.00
68.6474 406.00
68.7126 377.00
68.7778 347.00
68.843 390.00
68.9082 341.00
68.9734 394.00
69.0386 396.00
69.1038 390.00
69.169 377.00
69.2342 407.00
69.2994 399.00
69.3646 408.00
69.4298 436.00
69.495 447.00
69.5602 503.00
69.6254 547.00
69.6906 586.00
69.7558 632.00
69.821 816.00
69.8862 1005.00
69.9514 1086.00
70.0166 1107.00
70.0818 1010.00
70.147 1043.00
70.2122 884.00
70.2774 783.00
70.3426 711.00
70.4078 585.00
70.473 565.00
70.5382 506.00
70.6034 480.00
70.6686 475.00
70.7338 462.00
70.799 553.00
70.8642 502.00
70.9294 617.00
70.9946 740.00
71.0598 769.00
71.125 690.00
71.1902 772.00
71.2554 735.00
71.3205 653.00
71.3858 598.00
71.451 549.00
71.5162 484.00
71.5813 467.00
71.6465 393.00
71.7117 440.00
71.7769 449.00
71.8421 430.00
71.9073 445.00
71.9725 388.00
72.0377 399.00
72.1029 392.00
72.1681 391.00
72.2333 381.00
72.2985 356.00
72.3637 376.00
72.4289 338.00
72.4941 374.00
72.5593 346.00
72.6245 333.00
72.6897 366.00
72.7549 397.00
72.8201 380.00
72.8853 424.00
72.9505 445.00
73.0157 448.00
73.0809 483.00
73.1461 503.00
73.2113 471.00
73.2765 452.00
73.3417 407.00
73.4069 427.00
73.4721 351.00
73.5373 394.00
73.6025 370.00
73.6677 365.00
73.7329 341.00
73.7981 384.00
73.8633 371.00
73.9285 355.00
73.9937 350.00
74.0589 322.00
74.1241 369.00
74.1893 348.00
74.2545 344.00
74.3197 331.00
74.3849 338.00
74.4501 355.00
74.5153 368.00
74.5805 354.00
74.6457 374.00
74.7109 335.00
74.7761 339.00
74.8413 362.00
74.9065 288.00
74.9717 343.00
75.0369 330.00
75.1021 374.00
75.1673 400.00
75.2325 356.00
75.2977 406.00
75.3629 359.00
75.4281 355.00
75.4933 360.00
75.5585 384.00
75.6237 383.00
75.6889 459.00
75.7541 421.00
75.8193 501.00
75.8845 534.00
75.9497 548.00
76.0149 642.00
76.0801 703.00
76.1452 783.00
76.2104 726.00
76.2756 704.00
76.3409 755.00
76.406 721.00
76.4712 737.00
76.5364 810.00
76.6016 831.00
76.6668 852.00
76.732 764.00
76.7972 785.00
76.8624 791.00
76.9276 706.00
76.9928 699.00
77.058 682.00
77.1232 707.00
77.1884 839.00
77.2536 843.00
77.3188 880.00
77.384 997.00
77.4492 1036.00
77.5144 1115.00
77.5796 1244.00
77.6448 1312.00
77.71 1358.00
77.7752 1356.00
77.8404 1281.00
77.9056 1204.00
77.9708 1145.00
78.036 1062.00
78.1012 894.00
78.1664 840.00
78.2316 747.00
78.2968 671.00
78.362 614.00
78.4272 581.00
78.4924 542.00
78.5576 553.00
78.6228 616.00
78.688 661.00
78.7532 680.00
78.8184 633.00
78.8836 621.00
78.9488 574.00
79.014 539.00
79.0792 546.00
79.1444 497.00
79.2096 430.00
79.2748 435.00
79.34 407.00
79.4052 428.00
79.4704 370.00
79.5356 379.00
79.6008 356.00
79.666 354.00
79.7312 355.00
79.7964 361.00
79.8616 368.00
79.9268 379.00
79.992 335.00
80.0572 321.00
80.1224 348.00
80.1876 361.00
80.2528 338.00
80.318 352.00
80.3832 398.00
80.4484 386.00
80.5136 319.00
80.5788 317.00
80.644 314.00
80.7092 343.00
80.7744 334.00
80.8396 347.00
80.9048 361.00
80.9699 322.00
81.0351 343.00
81.1003 302.00
81.1655 361.00
81.2307 314.00
81.2959 335.00
81.3611 338.00
81.4263 332.00
81.4915 358.00
81.5567 340.00
81.6219 353.00
81.6871 373.00
81.7523 346.00
81.8175 359.00
81.8827 324.00
81.9479 390.00
82.0131 371.00
82.0783 388.00
82.1435 377.00
82.2087 419.00
82.2739 450.00
82.3391 544.00
82.4043 648.00
82.4695 692.00
82.5347 635.00
82.5999 728.00
82.6651 687.00
82.7303 656.00
82.7955 665.00
82.8607 605.00
82.9259 590.00
82.9911 463.00
83.0563 443.00
83.1215 435.00
83.1867 409.00
83.2519 385.00
83.3171 403.00
83.3823 356.00
83.4475 346.00
83.5127 370.00
83.5779 305.00
83.6431 327.00
83.7083 307.00
83.7735 329.00
83.8387 317.00
83.9039 318.00
83.9691 319.00
84.0343 324.00
84.0995 344.00
84.1647 292.00
84.2299 297.00
84.2951 344.00
84.3603 329.00
84.4255 322.00
84.4907 311.00
84.5559 354.00
84.6211 315.00
84.6863 335.00
84.7515 335.00
84.8167 357.00
84.8819 364.00
84.9471 358.00
85.0123 338.00
85.0775 392.00
85.1427 423.00
85.2079 393.00
85.2731 432.00
85.3383 421.00
85.4035 390.00
85.4687 391.00
85.5339 393.00
85.5991 371.00
85.6643 363.00
85.7295 351.00
85.7946 378.00
85.8598 374.00
85.925 407.00
85.9903 370.00
86.0554 369.00
86.1206 349.00
86.1858 334.00
86.251 389.00
86.3162 338.00
86.3814 353.00
86.4466 375.00
86.5118 394.00
86.577 408.00
86.6422 390.00
86.7074 353.00
86.7726 370.00
86.8378 350.00
86.903 350.00
86.9682 364.00
87.0334 323.00
87.0986 309.00
87.1638 349.00
87.229 319.00
87.2942 297.00
87.3594 354.00
87.4246 305.00
87.4898 337.00
87.555 342.00
87.6202 313.00
87.6854 342.00
87.7506 306.00
87.8158 370.00
87.881 338.00
87.9462 350.00
88.0114 322.00
88.0766 356.00
88.1418 335.00
88.207 361.00
88.2722 367.00
88.3374 388.00
88.4026 349.00
88.4678 409.00
88.533 426.00
88.5982 442.00
88.6634 451.00
88.7286 515.00
88.7938 568.00
88.859 640.00
88.9242 720.00
88.9894 683.00
89.0546 725.00
89.1198 716.00
89.185 654.00
89.2502 691.00
89.3154 605.00
89.3806 574.00
89.4458 498.00
89.511 489.00
89.5762 493.00
89.6414 513.00
89.7066 488.00
89.7718 525.00
89.837 514.00
89.9022 512.00
89.9674 485.00
90.0326 519.00
90.0978 522.00
90.163 537.00
90.2282 561.00
90.2934 525.00
90.3586 548.00
90.4238 522.00
90.489 580.00
90.5542 586.00
90.6193 552.00
90.6845 574.00
90.7497 608.00
90.8149 521.00
90.8801 509.00
90.9453 512.00
91.0105 503.00
91.0757 466.00
91.1409 484.00
91.2061 402.00
91.2713 411.00
91.3365 451.00
91.4017 453.00
91.4669 502.00
91.5321 474.00
91.5973 433.00
91.6625 465.00
91.7277 475.00
91.7929 443.00
91.8581 417.00
91.9233 400.00
91.9885 407.00
92.0537 379.00
92.1189 425.00
92.1841 377.00
92.2493 374.00
92.3145 401.00
92.3797 384.00
92.4449 391.00
92.5101 388.00
92.5753 394.00
92.6405 373.00
92.7057 381.00
92.7709 350.00
92.8361 366.00
92.9013 356.00
92.9665 331.00
93.0317 350.00
93.0969 372.00
93.1621 350.00
93.2273 361.00
93.2925 384.00
93.3577 414.00
93.4229 447.00
93.4881 485.00
93.5533 483.00
93.6185 448.00
93.6837 412.00
93.7489 392.00
93.8141 385.00
93.8793 393.00
93.9445 384.00
94.0097 398.00
94.0749 345.00
94.1401 343.00
94.2053 365.00
94.2705 321.00
94.3357 362.00
94.4009 331.00
94.4661 360.00
94.5313 350.00
94.5965 352.00
94.6617 332.00
94.7269 371.00
94.7921 284.00
94.8573 376.00
94.9225 365.00
94.9877 383.00
95.0529 365.00
95.1181 382.00
95.1833 401.00
95.2485 419.00
95.3137 430.00
95.3789 492.00
95.444 450.00
95.5092 553.00
95.5744 546.00
95.6396 560.00
95.7048 672.00
95.77 655.00
95.8352 728.00
95.9004 746.00
95.9656 761.00
96.0308 739.00
96.096 636.00
96.1612 627.00
96.2264 611.00
96.2916 639.00
96.3568 563.00
96.422 514.00
96.4872 515.00
96.5524 582.00
96.6176 539.00
96.6828 528.00
96.748 553.00
96.8132 592.00
96.8784 590.00
96.9436 594.00
97.0088 590.00
97.074 627.00
97.1392 586.00
97.2044 586.00
97.2696 554.00
97.3348 548.00
97.4 504.00
97.4652 549.00
97.5304 504.00
97.5956 461.00
97.6608 441.00
97.726 439.00
97.7912 419.00
97.8564 420.00
97.9216 397.00
97.9868 401.00
98.052 358.00
98.1172 394.00
98.1824 361.00
98.2476 359.00
98.3128 357.00
98.378 369.00
98.4432 341.00
98.5084 332.00
98.5736 356.00
98.6388 367.00
98.704 357.00
98.7692 353.00
98.8344 367.00
98.8996 312.00
98.9648 353.00
99.03 344.00
99.0952 374.00
99.1604 369.00
99.2256 328.00
99.2908 378.00
99.356 309.00
99.4212 367.00
99.4864 357.00
99.5516 325.00
99.6168 340.00
99.682 327.00
99.7472 311.00
99.8124 328.00
99.8776 341.00
99.9428 352.00
100.008 298.00
100.073 288.00
100.095 329.00