File: data/xrd_creation/results/PG_2145-1.xy
9.903433 2652.00
9.968632 2684.00
10.0338 2588.00
10.099 2540.00
10.1642 2608.00
10.2294 2619.00
10.2946 2521.00
10.3598 2609.00
10.425 2577.00
10.4902 2486.00
10.5554 2509.00
10.6206 2420.00
10.6858 2358.00
10.751 2428.00
10.8162 2406.00
10.8814 2351.00
10.9466 2341.00
11.0118 2308.00
11.077 2321.00
11.1422 2299.00
11.2074 2329.00
11.2726 2278.00
11.3378 2270.00
11.403 2261.00
11.4682 2178.00
11.5334 2178.00
11.5986 2273.00
11.6638 2185.00
11.729 2154.00
11.7942 2122.00
11.8594 2142.00
11.9246 2155.00
11.9898 2062.00
12.055 2065.00
12.1202 2023.00
12.1854 2085.00
12.2506 1988.00
12.3158 2049.00
12.381 2019.00
12.4462 2082.00
12.5114 2049.00
12.5766 1964.00
12.6418 1979.00
12.707 1942.00
12.7722 2035.00
12.8374 1977.00
12.9026 1973.00
12.9678 1992.00
13.033 2005.00
13.0982 1840.00
13.1634 1892.00
13.2286 1911.00
13.2938 1829.00
13.359 1984.00
13.4242 1947.00
13.4894 1917.00
13.5546 1884.00
13.6198 1885.00
13.685 1859.00
13.7502 1761.00
13.8154 1809.00
13.8805 1853.00
13.9457 1802.00
14.0109 1809.00
14.0761 1829.00
14.1413 1837.00
14.2065 1808.00
14.2717 1839.00
14.3369 1840.00
14.4021 1852.00
14.4673 1907.00
14.5325 1843.00
14.5977 1830.00
14.6629 1842.00
14.7281 1752.00
14.7933 1746.00
14.8585 1738.00
14.9237 1815.00
14.9889 1764.00
15.0541 1789.00
15.1193 1819.00
15.1845 1845.00
15.2497 1915.00
15.3149 1846.00
15.3801 1994.00
15.4453 1996.00
15.5105 2138.00
15.5757 2318.00
15.6409 2525.00
15.7061 3068.00
15.7713 3900.00
15.8365 5394.00
15.9017 7205.00
15.9669 8566.00
16.0321 7396.00
16.0973 5010.00
16.1625 3328.00
16.2277 2674.00
16.2929 2188.00
16.3581 2125.00
16.4233 1947.00
16.4885 1884.00
16.5537 1830.00
16.6189 1784.00
16.6841 1718.00
16.7493 1731.00
16.8145 1737.00
16.8797 1688.00
16.9449 1738.00
17.0101 1719.00
17.0753 1699.00
17.1405 1637.00
17.2057 1706.00
17.2709 1710.00
17.3361 1621.00
17.4013 1597.00
17.4665 1633.00
17.5317 1633.00
17.5969 1565.00
17.6621 1631.00
17.7273 1593.00
17.7925 1596.00
17.8577 1554.00
17.9229 1568.00
17.9881 1579.00
18.0533 1561.00
18.1185 1462.00
18.1837 1556.00
18.2489 1511.00
18.3141 1482.00
18.3793 1592.00
18.4445 1567.00
18.5097 1519.00
18.5749 1602.00
18.6401 1542.00
18.7052 1540.00
18.7704 1483.00
18.8356 1497.00
18.9008 1427.00
18.966 1504.00
19.0312 1498.00
19.0964 1463.00
19.1616 1485.00
19.2268 1443.00
19.292 1398.00
19.3572 1430.00
19.4224 1415.00
19.4876 1456.00
19.5528 1428.00
19.618 1443.00
19.6832 1381.00
19.7484 1428.00
19.8136 1447.00
19.8788 1402.00
19.944 1543.00
20.0092 1386.00
20.0744 1449.00
20.1396 1412.00
20.2048 1401.00
20.27 1483.00
20.3352 1404.00
20.4004 1437.00
20.4656 1422.00
20.5308 1426.00
20.596 1571.00
20.6612 1639.00
20.7264 1610.00
20.7916 1479.00
20.8568 1488.00
20.922 1414.00
20.9872 1369.00
21.0524 1409.00
21.1176 1453.00
21.1828 1390.00
21.248 1424.00
21.3132 1366.00
21.3784 1494.00
21.4436 1406.00
21.5088 1453.00
21.574 1430.00
21.6392 1308.00
21.7044 1309.00
21.7696 1328.00
21.8348 1382.00
21.9 1331.00
21.9652 1316.00
22.0304 1356.00
22.0956 1304.00
22.1608 1290.00
22.226 1300.00
22.2912 1348.00
22.3564 1345.00
22.4216 1305.00
22.4868 1354.00
22.552 1326.00
22.6172 1337.00
22.6824 1322.00
22.7476 1348.00
22.8128 1264.00
22.878 1297.00
22.9432 1271.00
23.0084 1315.00
23.0736 1325.00
23.1388 1269.00
23.204 1228.00
23.2692 1251.00
23.3344 1294.00
23.3996 1262.00
23.4647 1230.00
23.5299 1278.00
23.5951 1270.00
23.6603 1247.00
23.7255 1323.00
23.7907 1232.00
23.8559 1289.00
23.9211 1289.00
23.9863 1314.00
24.0515 1271.00
24.1167 1192.00
24.1819 1209.00
24.2471 1328.00
24.3123 1268.00
24.3775 1185.00
24.4427 1196.00
24.5079 1254.00
24.5731 1331.00
24.6383 1330.00
24.7035 1254.00
24.7687 1338.00
24.8339 1270.00
24.8991 1274.00
24.9643 1345.00
25.0295 1413.00
25.0947 1486.00
25.1599 1555.00
25.2251 1612.00
25.2903 2131.00
25.3555 2904.00
25.4207 4322.00
25.4859 6303.00
25.5511 6220.00
25.6163 4392.00
25.6815 3112.00
25.7467 2571.00
25.8119 2344.00
25.8771 2346.00
25.9423 2609.00
26.0075 2918.00
26.0727 3301.00
26.1379 3214.00
26.2031 2573.00
26.2683 2006.00
26.3335 1567.00
26.3987 1479.00
26.4639 1349.00
26.5291 1325.00
26.5943 1305.00
26.6595 1239.00
26.7247 1292.00
26.7899 1397.00
26.8551 1321.00
26.9203 1294.00
26.9855 1365.00
27.0507 1430.00
27.1159 1500.00
27.1811 1619.00
27.2463 1883.00
27.3115 2099.00
27.3767 2740.00
27.4419 3760.00
27.5071 5355.00
27.5723 6899.00
27.6375 7194.00
27.7027 5568.00
27.7679 3994.00
27.8331 2960.00
27.8983 2545.00
27.9635 2517.00
28.0287 2871.00
28.0939 3824.00
28.1591 5468.00
28.2243 7960.00
28.2894 9999.00
28.3546 9241.00
28.4198 6516.00
28.485 4027.00
28.5502 2913.00
28.6154 2245.00
28.6806 1789.00
28.7458 1610.00
28.811 1438.00
28.8762 1431.00
28.9414 1384.00
29.0066 1337.00
29.0718 1274.00
29.137 1278.00
29.2022 1218.00
29.2674 1270.00
29.3326 1222.00
29.3978 1217.00
29.463 1157.00
29.5282 1105.00
29.5934 1044.00
29.6586 1163.00
29.7238 1174.00
29.789 1209.00
29.8542 1398.00
29.9194 1708.00
29.9846 1714.00
30.0498 1501.00
30.115 1169.00
30.1802 1171.00
30.2454 1129.00
30.3106 1097.00
30.3758 1094.00
30.441 1077.00
30.5062 1066.00
30.5714 1108.00
30.6366 1106.00
30.7018 1145.00
30.767 1096.00
30.8322 1100.00
30.8974 1089.00
30.9626 1073.00
31.0278 1058.00
31.093 1059.00
31.1582 1106.00
31.2234 1066.00
31.2886 1136.00
31.3538 1120.00
31.419 1177.00
31.4842 1240.00
31.5494 1206.00
31.6146 1421.00
31.6798 1555.00
31.745 1903.00
31.8102 2342.00
31.8754 2842.00
31.9406 2778.00
32.0058 2354.00
32.071 1831.00
32.1362 1497.00
32.2014 1310.00
32.2666 1221.00
32.3318 1094.00
32.397 1098.00
32.4622 1033.00
32.5274 1038.00
32.5926 1030.00
32.6578 1025.00
32.723 1064.00
32.7882 1000.00
32.8534 1050.00
32.9186 1007.00
32.9838 1003.00
33.0489 972.00
33.1141 968.00
33.1793 998.00
33.2445 988.00
33.3097 984.00
33.3749 956.00
33.4401 990.00
33.5053 946.00
33.5705 921.00
33.6357 900.00
33.7009 950.00
33.7661 1044.00
33.8313 986.00
33.8965 949.00
33.9617 923.00
34.0269 938.00
34.0921 1012.00
34.1573 1028.00
34.2225 1020.00
34.2877 1004.00
34.3529 978.00
34.4181 950.00
34.4833 992.00
34.5485 922.00
34.6137 1051.00
34.6789 993.00
34.7441 1090.00
34.8093 1164.00
34.8745 1158.00
34.9397 1135.00
35.0049 1163.00
35.0701 1146.00
35.1353 1052.00
35.2005 1062.00
35.2657 1066.00
35.3309 1351.00
35.3961 1388.00
35.4613 1491.00
35.5265 1588.00
35.5917 1538.00
35.6569 1386.00
35.7221 1341.00
35.7873 1279.00
35.8525 1128.00
35.9177 1246.00
35.9829 1273.00
36.0481 1287.00
36.1133 1321.00
36.1785 1487.00
36.2437 1664.00
36.3089 1839.00
36.3741 2011.00
36.4393 2215.00
36.5045 2538.00
36.5697 2583.00
36.6349 2503.00
36.7001 2352.00
36.7653 2476.00
36.8305 2558.00
36.8957 2398.00
36.9609 2167.00
37.0261 1743.00
37.0913 1355.00
37.1565 1254.00
37.2217 1081.00
37.2869 1016.00
37.3521 981.00
37.4173 899.00
37.4825 961.00
37.5477 972.00
37.6129 957.00
37.6781 971.00
37.7433 912.00
37.8085 949.00
37.8736 898.00
37.9388 942.00
38.004 852.00
38.0692 875.00
38.1344 868.00
38.1996 889.00
38.2648 870.00
38.33 889.00
38.3952 891.00
38.4604 957.00
38.5256 1004.00
38.5908 918.00
38.656 969.00
38.7212 925.00
38.7864 962.00
38.8516 975.00
38.9168 1013.00
38.982 1006.00
39.0472 1091.00
39.1124 1061.00
39.1776 1129.00
39.2428 1180.00
39.308 1263.00
39.3732 1392.00
39.4384 1542.00
39.5036 1919.00
39.5688 2562.00
39.634 3635.00
39.6992 5097.00
39.7644 6429.00
39.8296 6413.00
39.8948 5287.00
39.96 3909.00
40.0252 2876.00
40.0904 2173.00
40.1556 1670.00
40.2208 1372.00
40.286 1302.00
40.3512 1216.00
40.4164 1125.00
40.4816 1012.00
40.5468 1051.00
40.612 1014.00
40.6772 983.00
40.7424 931.00
40.8076 984.00
40.8728 913.00
40.938 909.00
41.0032 945.00
41.0684 935.00
41.1336 905.00
41.1988 944.00
41.264 968.00
41.3292 896.00
41.3944 917.00
41.4596 1056.00
41.5248 1101.00
41.59 1328.00
41.6552 1426.00
41.7204 1399.00
41.7856 1270.00
41.8508 1065.00
41.916 1048.00
41.9812 984.00
42.0464 1032.00
42.1116 984.00
42.1768 1020.00
42.242 1125.00
42.3072 1202.00
42.3724 1338.00
42.4376 1647.00
42.5028 1798.00
42.568 1852.00
42.6332 1720.00
42.6983 1435.00
42.7635 1296.00
42.8287 1161.00
42.8939 1050.00
42.9591 979.00
43.0243 1046.00
43.0895 1014.00
43.1547 1077.00
43.2199 1052.00
43.2851 970.00
43.3503 972.00
43.4155 955.00
43.4807 927.00
43.5459 907.00
43.6111 935.00
43.6763 882.00
43.7415 923.00
43.8067 909.00
43.8719 956.00
43.9371 883.00
44.0023 982.00
44.0675 1037.00
44.1327 1113.00
44.1979 1245.00
44.2631 1603.00
44.3283 2127.00
44.3935 2835.00
44.4587 2841.00
44.5239 2428.00
44.5891 1953.00
44.6543 1463.00
44.7195 1192.00
44.7847 1179.00
44.8499 1053.00
44.9151 1079.00
44.9803 957.00
45.0455 1002.00
45.1107 992.00
45.1759 935.00
45.2411 996.00
45.3063 983.00
45.3715 1003.00
45.4367 1013.00
45.5019 1032.00
45.5671 1050.00
45.6323 1106.00
45.6975 1172.00
45.7627 1253.00
45.8279 1284.00
45.8931 1523.00
45.9583 1513.00
46.0235 1432.00
46.0887 1202.00
46.1539 1139.00
46.2191 1029.00
46.2843 961.00
46.3495 971.00
46.4147 914.00
46.4799 917.00
46.5451 951.00
46.6103 922.00
46.6755 997.00
46.7407 1005.00
46.8059 1141.00
46.8711 1343.00
46.9363 1397.00
47.0015 1330.00
47.0667 1381.00
47.1319 1384.00
47.1971 1452.00
47.2623 1580.00
47.3275 1812.00
47.3927 1989.00
47.4579 1978.00
47.523 1818.00
47.5882 1658.00
47.6534 1478.00
47.7186 1387.00
47.7838 1501.00
47.849 1578.00
47.9142 1856.00
47.9794 2196.00
48.0446 2142.00
48.1098 2001.00
48.175 1860.00
48.2402 1792.00
48.3054 1959.00
48.3706 2233.00
48.4358 2783.00
48.501 3085.00
48.5662 3134.00
48.6314 3125.00
48.6966 3245.00
48.7618 3527.00
48.827 4147.00
48.8922 5006.00
48.9574 5473.00
49.0226 4979.00
49.0878 4165.00
49.153 3302.00
49.2182 2498.00
49.2834 1924.00
49.3486 1719.00
49.4138 1395.00
49.479 1344.00
49.5442 1090.00
49.6094 1060.00
49.6746 1089.00
49.7398 1104.00
49.805 1018.00
49.8702 1032.00
49.9354 1065.00
50.0006 1088.00
50.0658 1329.00
50.131 1652.00
50.1962 2119.00
50.2614 2534.00
50.3266 2265.00
50.3918 2105.00
50.457 1683.00
50.5222 1477.00
50.5874 1413.00
50.6526 1306.00
50.7178 1209.00
50.783 1025.00
50.8482 957.00
50.9134 882.00
50.9786 930.00
51.0438 920.00
51.109 832.00
51.1742 870.00
51.2394 820.00
51.3046 801.00
51.3698 767.00
51.435 838.00
51.5002 844.00
51.5654 746.00
51.6306 801.00
51.6958 860.00
51.761 808.00
51.8262 818.00
51.8914 849.00
51.9566 960.00
52.0218 927.00
52.087 891.00
52.1522 900.00
52.2174 787.00
52.2826 834.00
52.3477 736.00
52.4129 774.00
52.4781 785.00
52.5433 782.00
52.6085 786.00
52.6737 734.00
52.7389 776.00
52.8041 765.00
52.8693 826.00
52.9345 809.00
52.9997 776.00
53.0649 736.00
53.1301 809.00
53.1953 832.00
53.2605 809.00
53.3257 917.00
53.3909 825.00
53.4561 809.00
53.5213 841.00
53.5865 748.00
53.6517 806.00
53.7169 786.00
53.7821 748.00
53.8473 771.00
53.9125 730.00
53.9777 738.00
54.0429 728.00
54.1081 736.00
54.1733 717.00
54.2385 744.00
54.3037 746.00
54.3689 771.00
54.4341 772.00
54.4993 704.00
54.5645 836.00
54.6297 719.00
54.6949 757.00
54.7601 811.00
54.8253 812.00
54.8905 809.00
54.9557 819.00
55.0209 863.00
55.0861 888.00
55.1513 912.00
55.2165 971.00
55.2817 1086.00
55.3469 1222.00
55.4121 1424.00
55.4773 1779.00
55.5425 2055.00
55.6077 2101.00
55.6729 1952.00
55.7381 1550.00
55.8033 1416.00
55.8685 1331.00
55.9337 1053.00
55.9989 1032.00
56.0641 940.00
56.1293 955.00
56.1945 966.00
56.2597 952.00
56.3249 1026.00
56.3901 1112.00
56.4553 1250.00
56.5205 1306.00
56.5857 1355.00
56.6509 1391.00
56.7161 1257.00
56.7813 1184.00
56.8465 1070.00
56.9117 1058.00
56.9769 987.00
57.042 935.00
57.1073 925.00
57.1724 888.00
57.2376 869.00
57.3028 876.00
57.368 909.00
57.4332 933.00
57.4984 983.00
57.5636 1006.00
57.6288 1040.00
57.694 1015.00
57.7592 1024.00
57.8244 1002.00
57.8896 1006.00
57.9548 1042.00
58.02 1176.00
58.0852 1140.00
58.1504 1187.00
58.2156 1071.00
58.2808 1082.00
58.346 995.00
58.4112 930.00
58.4764 929.00
58.5416 888.00
58.6068 888.00
58.672 859.00
58.7372 874.00
58.8024 966.00
58.8676 988.00
58.9328 1106.00
58.998 1137.00
59.0632 1259.00
59.1284 1279.00
59.1936 1256.00
59.2588 1212.00
59.324 1145.00
59.3892 1022.00
59.4544 1005.00
59.5196 887.00
59.5848 813.00
59.65 842.00
59.7152 897.00
59.7804 847.00
59.8456 926.00
59.9108 872.00
59.976 933.00
60.0412 930.00
60.1064 967.00
60.1716 914.00
60.2368 903.00
60.302 855.00
60.3672 704.00
60.4324 770.00
60.4976 719.00
60.5628 802.00
60.628 718.00
60.6932 718.00
60.7584 730.00
60.8236 729.00
60.8888 768.00
60.954 713.00
61.0192 748.00
61.0844 732.00
61.1496 761.00
61.2148 654.00
61.28 788.00
61.3452 717.00
61.4104 718.00
61.4756 697.00
61.5408 778.00
61.606 703.00
61.6712 764.00
61.7364 727.00
61.8016 773.00
61.8667 708.00
61.932 744.00
61.9971 765.00
62.0623 766.00
62.1275 722.00
62.1927 704.00
62.2579 770.00
62.3231 682.00
62.3883 698.00
62.4535 734.00
62.5187 716.00
62.5839 756.00
62.6491 719.00
62.7143 722.00
62.7795 744.00
62.8447 755.00
62.9099 773.00
62.9751 768.00
63.0403 831.00
63.1055 777.00
63.1707 830.00
63.2359 744.00
63.3011 810.00
63.3663 842.00
63.4315 802.00
63.4967 811.00
63.5619 739.00
63.6271 773.00
63.6923 780.00
63.7575 917.00
63.8227 839.00
63.8879 979.00
63.9531 1112.00
64.0183 1190.00
64.0835 1319.00
64.1487 1625.00
64.2139 1867.00
64.2791 1938.00
64.3443 1847.00
64.4095 1641.00
64.4747 1644.00
64.5399 1386.00
64.6051 1296.00
64.6703 1082.00
64.7355 995.00
64.8007 960.00
64.8659 877.00
64.9311 899.00
64.9963 909.00
65.0615 953.00
65.1267 896.00
65.1919 1010.00
65.2571 1098.00
65.3223 1179.00
65.3875 1087.00
65.4527 1110.00
65.5179 1171.00
65.5831 1098.00
65.6483 1089.00
65.7135 1065.00
65.7787 1006.00
65.8439 1044.00
65.9091 1021.00
65.9743 952.00
66.0395 957.00
66.1047 872.00
66.1699 910.00
66.2351 946.00
66.3003 960.00
66.3655 951.00
66.4307 897.00
66.4959 903.00
66.561 801.00
66.6263 855.00
66.6915 800.00
66.7566 781.00
66.8218 772.00
66.887 777.00
66.9522 770.00
67.0174 730.00
67.0826 770.00
67.1478 739.00
67.213 729.00
67.2782 691.00
67.3434 736.00
67.4086 678.00
67.4738 695.00
67.539 731.00
67.6042 670.00
67.6694 727.00
67.7346 693.00
67.7998 752.00
67.865 641.00
67.9302 688.00
67.9954 710.00
68.0606 699.00
68.1258 709.00
68.191 672.00
68.2562 719.00
68.3214 728.00
68.3866 662.00
68.4518 683.00
68.517 737.00
68.5822 682.00
68.6474 644.00
68.7126 722.00
68.7778 695.00
68.843 720.00
68.9082 712.00
68.9734 706.00
69.0386 698.00
69.1038 777.00
69.169 731.00
69.2342 690.00
69.2994 778.00
69.3646 753.00
69.4298 780.00
69.495 914.00
69.5602 822.00
69.6254 873.00
69.6906 945.00
69.7558 1079.00
69.821 1284.00
69.8862 1413.00
69.9514 1442.00
70.0166 1442.00
70.0818 1339.00
70.147 1296.00
70.2122 1114.00
70.2774 1020.00
70.3426 980.00
70.4078 881.00
70.473 847.00
70.5382 781.00
70.6034 793.00
70.6686 798.00
70.7338 757.00
70.799 841.00
70.8642 753.00
70.9294 820.00
70.9946 919.00
71.0598 922.00
71.125 884.00
71.1902 968.00
71.2554 909.00
71.3205 897.00
71.3858 831.00
71.451 895.00
71.5162 791.00
71.5813 826.00
71.6465 783.00
71.7117 729.00
71.7769 730.00
71.8421 754.00
71.9073 784.00
71.9725 728.00
72.0377 789.00
72.1029 794.00
72.1681 875.00
72.2333 892.00
72.2985 923.00
72.3637 871.00
72.4289 916.00
72.4941 860.00
72.5593 861.00
72.6245 823.00
72.6897 816.00
72.7549 779.00
72.8201 766.00
72.8853 850.00
72.9505 811.00
73.0157 856.00
73.0809 903.00
73.1461 871.00
73.2113 900.00
73.2765 946.00
73.3417 847.00
73.4069 905.00
73.4721 800.00
73.5373 794.00
73.6025 774.00
73.6677 881.00
73.7329 846.00
73.7981 877.00
73.8633 944.00
73.9285 1056.00
73.9937 1083.00
74.0589 1036.00
74.1241 1009.00
74.1893 993.00
74.2545 909.00
74.3197 928.00
74.3849 852.00
74.4501 895.00
74.5153 908.00
74.5805 887.00
74.6457 919.00
74.7109 908.00
74.7761 882.00
74.8413 944.00
74.9065 902.00
74.9717 817.00
75.0369 897.00
75.1021 815.00
75.1673 818.00
75.2325 887.00
75.2977 872.00
75.3629 907.00
75.4281 934.00
75.4933 866.00
75.5585 935.00
75.6237 916.00
75.6889 1005.00
75.7541 950.00
75.8193 904.00
75.8845 991.00
75.9497 1122.00
76.0149 1142.00
76.0801 1129.00
76.1452 1241.00
76.2104 1163.00
76.2756 1228.00
76.3409 1270.00
76.406 1175.00
76.4712 1206.00
76.5364 1229.00
76.6016 1246.00
76.6668 1226.00
76.732 1116.00
76.7972 1209.00
76.8624 1129.00
76.9276 1042.00
76.9928 1029.00
77.058 1054.00
77.1232 1083.00
77.1884 1171.00
77.2536 1168.00
77.3188 1243.00
77.384 1326.00
77.4492 1489.00
77.5144 1525.00
77.5796 1611.00
77.6448 1727.00
77.71 1781.00
77.7752 1824.00
77.8404 1735.00
77.9056 1661.00
77.9708 1507.00
78.036 1434.00
78.1012 1286.00
78.1664 1180.00
78.2316 1160.00
78.2968 1101.00
78.362 1020.00
78.4272 955.00
78.4924 985.00
78.5576 941.00
78.6228 960.00
78.688 905.00
78.7532 997.00
78.8184 956.00
78.8836 875.00
78.9488 899.00
79.014 880.00
79.0792 837.00
79.1444 854.00
79.2096 741.00
79.2748 731.00
79.34 798.00
79.4052 711.00
79.4704 800.00
79.5356 743.00
79.6008 730.00
79.666 707.00
79.7312 749.00
79.7964 731.00
79.8616 717.00
79.9268 690.00
79.992 677.00
80.0572 745.00
80.1224 697.00
80.1876 702.00
80.2528 734.00
80.318 758.00
80.3832 807.00
80.4484 788.00
80.5136 762.00
80.5788 741.00
80.644 751.00
80.7092 716.00
80.7744 779.00
80.8396 750.00
80.9048 716.00
80.9699 723.00
81.0351 730.00
81.1003 714.00
81.1655 720.00
81.2307 766.00
81.2959 734.00
81.3611 823.00
81.4263 739.00
81.4915 692.00
81.5567 733.00
81.6219 728.00
81.6871 744.00
81.7523 718.00
81.8175 765.00
81.8827 734.00
81.9479 788.00
82.0131 862.00
82.0783 830.00
82.1435 852.00
82.2087 884.00
82.2739 966.00
82.3391 929.00
82.4043 967.00
82.4695 1057.00
82.5347 1045.00
82.5999 997.00
82.6651 962.00
82.7303 975.00
82.7955 974.00
82.8607 935.00
82.9259 878.00
82.9911 843.00
83.0563 811.00
83.1215 756.00
83.1867 805.00
83.2519 792.00
83.3171 836.00
83.3823 810.00
83.4475 777.00
83.5127 815.00
83.5779 784.00
83.6431 808.00
83.7083 767.00
83.7735 731.00
83.8387 800.00
83.9039 735.00
83.9691 693.00
84.0343 757.00
84.0995 725.00
84.1647 768.00
84.2299 710.00
84.2951 730.00
84.3603 726.00
84.4255 788.00
84.4907 776.00
84.5559 761.00
84.6211 803.00
84.6863 757.00
84.7515 685.00
84.8167 716.00
84.8819 796.00
84.9471 758.00
85.0123 776.00
85.0775 774.00
85.1427 809.00
85.2079 809.00
85.2731 775.00
85.3383 859.00
85.4035 806.00
85.4687 807.00
85.5339 845.00
85.5991 806.00
85.6643 798.00
85.7295 776.00
85.7946 740.00
85.8598 758.00
85.925 812.00
85.9903 758.00
86.0554 748.00
86.1206 729.00
86.1858 695.00
86.251 690.00
86.3162 701.00
86.3814 709.00
86.4466 686.00
86.5118 700.00
86.577 691.00
86.6422 745.00
86.7074 684.00
86.7726 627.00
86.8378 673.00
86.903 706.00
86.9682 618.00
87.0334 650.00
87.0986 638.00
87.1638 700.00
87.229 680.00
87.2942 686.00
87.3594 740.00
87.4246 705.00
87.4898 723.00
87.555 646.00
87.6202 689.00
87.6854 745.00
87.7506 697.00
87.8158 650.00
87.881 709.00
87.9462 772.00
88.0114 817.00
88.0766 710.00
88.1418 756.00
88.207 728.00
88.2722 725.00
88.3374 807.00
88.4026 738.00
88.4678 800.00
88.533 738.00
88.5982 818.00
88.6634 891.00
88.7286 916.00
88.7938 1076.00
88.859 1033.00
88.9242 1063.00
88.9894 1057.00
89.0546 1085.00
89.1198 1084.00
89.185 1056.00
89.2502 1004.00
89.3154 951.00
89.3806 946.00
89.4458 834.00
89.511 861.00
89.5762 833.00
89.6414 783.00
89.7066 799.00
89.7718 776.00
89.837 784.00
89.9022 803.00
89.9674 771.00
90.0326 803.00
90.0978 932.00
90.163 923.00
90.2282 893.00
90.2934 892.00
90.3586 887.00
90.4238 919.00
90.489 923.00
90.5542 901.00
90.6193 877.00
90.6845 907.00
90.7497 904.00
90.8149 864.00
90.8801 841.00
90.9453 799.00
91.0105 819.00
91.0757 872.00
91.1409 733.00
91.2061 846.00
91.2713 845.00
91.3365 825.00
91.4017 816.00
91.4669 813.00
91.5321 817.00
91.5973 800.00
91.6625 797.00
91.7277 813.00
91.7929 894.00
91.8581 836.00
91.9233 835.00
91.9885 810.00
92.0537 803.00
92.1189 799.00
92.1841 760.00
92.2493 779.00
92.3145 797.00
92.3797 779.00
92.4449 788.00
92.5101 721.00
92.5753 683.00
92.6405 761.00
92.7057 738.00
92.7709 747.00
92.8361 698.00
92.9013 686.00
92.9665 711.00
93.0317 632.00
93.0969 658.00
93.1621 714.00
93.2273 681.00
93.2925 677.00
93.3577 673.00
93.4229 686.00
93.4881 672.00
93.5533 651.00
93.6185 679.00
93.6837 677.00
93.7489 712.00
93.8141 723.00
93.8793 727.00
93.9445 794.00
94.0097 728.00
94.0749 749.00
94.1401 709.00
94.2053 793.00
94.2705 793.00
94.3357 751.00
94.4009 740.00
94.4661 740.00
94.5313 740.00
94.5965 685.00
94.6617 789.00
94.7269 754.00
94.7921 797.00
94.8573 809.00
94.9225 811.00
94.9877 842.00
95.0529 887.00
95.1181 825.00
95.1833 876.00
95.2485 859.00
95.3137 821.00
95.3789 959.00
95.444 885.00
95.5092 960.00
95.5744 1031.00
95.6396 1100.00
95.7048 1055.00
95.77 1132.00
95.8352 1146.00
95.9004 1113.00
95.9656 1093.00
96.0308 1101.00
96.096 1093.00
96.1612 990.00
96.2264 988.00
96.2916 919.00
96.3568 923.00
96.422 926.00
96.4872 920.00
96.5524 884.00
96.6176 945.00
96.6828 911.00
96.748 969.00
96.8132 957.00
96.8784 1052.00
96.9436 1042.00
97.0088 1019.00
97.074 939.00
97.1392 1004.00
97.2044 1066.00
97.2696 991.00
97.3348 968.00
97.4 982.00
97.4652 964.00
97.5304 929.00
97.5956 799.00
97.6608 847.00
97.726 802.00
97.7912 736.00
97.8564 833.00
97.9216 810.00
97.9868 768.00
98.052 740.00
98.1172 663.00
98.1824 678.00
98.2476 762.00
98.3128 744.00
98.378 698.00
98.4432 729.00
98.5084 717.00
98.5736 727.00
98.6388 706.00
98.704 767.00
98.7692 722.00
98.8344 705.00
98.8996 699.00
98.9648 737.00
99.03 746.00
99.0952 741.00
99.1604 756.00
99.2256 777.00
99.2908 739.00
99.356 772.00
99.4212 696.00
99.4864 768.00
99.5516 753.00
99.6168 769.00
99.682 756.00
99.7472 725.00
99.8124 691.00
99.8776 725.00
99.9428 704.00
100.008 687.00
100.073 719.00
100.095 731.00