File: data/xrd_creation/results/PG_2743-1.xy
9.903433 3896.00
9.968632 4105.00
10.0338 4011.00
10.099 3974.00
10.1642 3836.00
10.2294 4025.00
10.2946 3975.00
10.3598 3782.00
10.425 3916.00
10.4902 3872.00
10.5554 3927.00
10.6206 3822.00
10.6858 3969.00
10.751 3979.00
10.8162 3855.00
10.8814 3898.00
10.9466 3833.00
11.0118 3873.00
11.077 3750.00
11.1422 3920.00
11.2074 3906.00
11.2726 3860.00
11.3378 3680.00
11.403 3798.00
11.4682 3725.00
11.5334 3837.00
11.5986 3742.00
11.6638 3746.00
11.729 3749.00
11.7942 3788.00
11.8594 3803.00
11.9246 3648.00
11.9898 3728.00
12.055 3737.00
12.1202 3671.00
12.1854 3748.00
12.2506 3720.00
12.3158 3771.00
12.381 3645.00
12.4462 3695.00
12.5114 3667.00
12.5766 3634.00
12.6418 3602.00
12.707 3763.00
12.7722 3790.00
12.8374 3678.00
12.9026 3643.00
12.9678 3589.00
13.033 3669.00
13.0982 3637.00
13.1634 3644.00
13.2286 3611.00
13.2938 3545.00
13.359 3665.00
13.4242 3732.00
13.4894 3674.00
13.5546 3599.00
13.6198 3603.00
13.685 3625.00
13.7502 3711.00
13.8154 3646.00
13.8805 3540.00
13.9457 3715.00
14.0109 3518.00
14.0761 3634.00
14.1413 3615.00
14.2065 3532.00
14.2717 3538.00
14.3369 3618.00
14.4021 3494.00
14.4673 3548.00
14.5325 3527.00
14.5977 3586.00
14.6629 3613.00
14.7281 3670.00
14.7933 3724.00
14.8585 3524.00
14.9237 3553.00
14.9889 3634.00
15.0541 3561.00
15.1193 3637.00
15.1845 3600.00
15.2497 3623.00
15.3149 3607.00
15.3801 3543.00
15.4453 3657.00
15.5105 3603.00
15.5757 3713.00
15.6409 3664.00
15.7061 3660.00
15.7713 3665.00
15.8365 3665.00
15.9017 3580.00
15.9669 3510.00
16.0321 3681.00
16.0973 3634.00
16.1625 3645.00
16.2277 3686.00
16.2929 3716.00
16.3581 3670.00
16.4233 3661.00
16.4885 3692.00
16.5537 3730.00
16.6189 3588.00
16.6841 3613.00
16.7493 3586.00
16.8145 3701.00
16.8797 3750.00
16.9449 3652.00
17.0101 3593.00
17.0753 3686.00
17.1405 3573.00
17.2057 3584.00
17.2709 3597.00
17.3361 3739.00
17.4013 3598.00
17.4665 3693.00
17.5317 3728.00
17.5969 3577.00
17.6621 3694.00
17.7273 3547.00
17.7925 3706.00
17.8577 3668.00
17.9229 3624.00
17.9881 3710.00
18.0533 3515.00
18.1185 3604.00
18.1837 3702.00
18.2489 3788.00
18.3141 3850.00
18.3793 3687.00
18.4445 3560.00
18.5097 3630.00
18.5749 3630.00
18.6401 3604.00
18.7052 3643.00
18.7704 3684.00
18.8356 3620.00
18.9008 3612.00
18.966 3780.00
19.0312 3672.00
19.0964 3855.00
19.1616 3830.00
19.2268 3770.00
19.292 3715.00
19.3572 3619.00
19.4224 3774.00
19.4876 3776.00
19.5528 3754.00
19.618 3603.00
19.6832 3713.00
19.7484 3654.00
19.8136 3618.00
19.8788 3662.00
19.944 3763.00
20.0092 3740.00
20.0744 3682.00
20.1396 3615.00
20.2048 3671.00
20.27 3716.00
20.3352 3720.00
20.4004 3759.00
20.4656 3609.00
20.5308 3656.00
20.596 3747.00
20.6612 3580.00
20.7264 3686.00
20.7916 3753.00
20.8568 3529.00
20.922 3742.00
20.9872 3590.00
21.0524 3808.00
21.1176 3766.00
21.1828 3684.00
21.248 3608.00
21.3132 3763.00
21.3784 3747.00
21.4436 3638.00
21.5088 3692.00
21.574 3690.00
21.6392 3701.00
21.7044 3687.00
21.7696 3826.00
21.8348 3843.00
21.9 3746.00
21.9652 3678.00
22.0304 3667.00
22.0956 3614.00
22.1608 3589.00
22.226 3691.00
22.2912 3666.00
22.3564 3756.00
22.4216 3559.00
22.4868 3640.00
22.552 3645.00
22.6172 3673.00
22.6824 3650.00
22.7476 3654.00
22.8128 3730.00
22.878 3562.00
22.9432 3537.00
23.0084 3706.00
23.0736 3585.00
23.1388 3725.00
23.204 3856.00
23.2692 4214.00
23.3344 4806.00
23.3996 5879.00
23.4647 5677.00
23.5299 4318.00
23.5951 3742.00
23.6603 3532.00
23.7255 3536.00
23.7907 3594.00
23.8559 3580.00
23.9211 3518.00
23.9863 3581.00
24.0515 3554.00
24.1167 3536.00
24.1819 3506.00
24.2471 3497.00
24.3123 3480.00
24.3775 3484.00
24.4427 3463.00
24.5079 3352.00
24.5731 3507.00
24.6383 3475.00
24.7035 3339.00
24.7687 3516.00
24.8339 3417.00
24.8991 3500.00
24.9643 3377.00
25.0295 3381.00
25.0947 3352.00
25.1599 3435.00
25.2251 3463.00
25.2903 3555.00
25.3555 3430.00
25.4207 3363.00
25.4859 3511.00
25.5511 3492.00
25.6163 3381.00
25.6815 3516.00
25.7467 3604.00
25.8119 3516.00
25.8771 3562.00
25.9423 3461.00
26.0075 3332.00
26.0727 3417.00
26.1379 3346.00
26.2031 3412.00
26.2683 3480.00
26.3335 3299.00
26.3987 3275.00
26.4639 3419.00
26.5291 3274.00
26.5943 3272.00
26.6595 3344.00
26.7247 3274.00
26.7899 3354.00
26.8551 3280.00
26.9203 3284.00
26.9855 3353.00
27.0507 3308.00
27.1159 3310.00
27.1811 3247.00
27.2463 3402.00
27.3115 3231.00
27.3767 3248.00
27.4419 3263.00
27.5071 3375.00
27.5723 3156.00
27.6375 3350.00
27.7027 3190.00
27.7679 3393.00
27.8331 3260.00
27.8983 3235.00
27.9635 3195.00
28.0287 3232.00
28.0939 3297.00
28.1591 3222.00
28.2243 3171.00
28.2894 3277.00
28.3546 3210.00
28.4198 3197.00
28.485 3237.00
28.5502 3336.00
28.6154 3129.00
28.6806 3298.00
28.7458 3337.00
28.811 3244.00
28.8762 3202.00
28.9414 3144.00
29.0066 3186.00
29.0718 3210.00
29.137 3402.00
29.2022 3458.00
29.2674 3309.00
29.3326 3189.00
29.3978 3180.00
29.463 3257.00
29.5282 3229.00
29.5934 3142.00
29.6586 3090.00
29.7238 3233.00
29.789 3125.00
29.8542 3250.00
29.9194 3178.00
29.9846 3200.00
30.0498 3217.00
30.115 3197.00
30.1802 3153.00
30.2454 3167.00
30.3106 3112.00
30.3758 3091.00
30.441 3117.00
30.5062 3122.00
30.5714 3117.00
30.6366 3176.00
30.7018 3117.00
30.767 3125.00
30.8322 3091.00
30.8974 3183.00
30.9626 3095.00
31.0278 2983.00
31.093 3133.00
31.1582 3039.00
31.2234 3199.00
31.2886 3202.00
31.3538 3232.00
31.419 3151.00
31.4842 3027.00
31.5494 3139.00
31.6146 3186.00
31.6798 3155.00
31.745 3069.00
31.8102 3105.00
31.8754 3179.00
31.9406 3127.00
32.0058 3099.00
32.071 3154.00
32.1362 3163.00
32.2014 3099.00
32.2666 3195.00
32.3318 3143.00
32.397 3130.00
32.4622 3240.00
32.5274 3449.00
32.5926 3729.00
32.6578 3712.00
32.723 3543.00
32.7882 3462.00
32.8534 3493.00
32.9186 3559.00
32.9838 3996.00
33.0489 5157.00
33.1141 8219.00
33.1793 16023.00
33.2445 22548.00
33.3097 15421.00
33.3749 7802.00
33.4401 4576.00
33.5053 3647.00
33.5705 3440.00
33.6357 3324.00
33.7009 3344.00
33.7661 3195.00
33.8313 3161.00
33.8965 3287.00
33.9617 3188.00
34.0269 3148.00
34.0921 3164.00
34.1573 3125.00
34.2225 3026.00
34.2877 3044.00
34.3529 3034.00
34.4181 3120.00
34.4833 3016.00
34.5485 3085.00
34.6137 3080.00
34.6789 3002.00
34.7441 3091.00
34.8093 3084.00
34.8745 2958.00
34.9397 3024.00
35.0049 3107.00
35.0701 3069.00
35.1353 3027.00
35.2005 2914.00
35.2657 3055.00
35.3309 3057.00
35.3961 3071.00
35.4613 3087.00
35.5265 3168.00
35.5917 3082.00
35.6569 3050.00
35.7221 3060.00
35.7873 3039.00
35.8525 3074.00
35.9177 3264.00
35.9829 3156.00
36.0481 3183.00
36.1133 2999.00
36.1785 3076.00
36.2437 3025.00
36.3089 3212.00
36.3741 3648.00
36.4393 3263.00
36.5045 3202.00
36.5697 2999.00
36.6349 2999.00
36.7001 2964.00
36.7653 3054.00
36.8305 2934.00
36.8957 2918.00
36.9609 3013.00
37.0261 2938.00
37.0913 2907.00
37.1565 2970.00
37.2217 2903.00
37.2869 2952.00
37.3521 2972.00
37.4173 2909.00
37.4825 3038.00
37.5477 2922.00
37.6129 2925.00
37.6781 2966.00
37.7433 2969.00
37.8085 3025.00
37.8736 2918.00
37.9388 2930.00
38.004 2897.00
38.0692 2990.00
38.1344 3012.00
38.1996 3122.00
38.2648 3273.00
38.33 3375.00
38.3952 4162.00
38.4604 5426.00
38.5256 5701.00
38.5908 4584.00
38.656 3603.00
38.7212 3135.00
38.7864 3183.00
38.8516 3107.00
38.9168 2962.00
38.982 2988.00
39.0472 2884.00
39.1124 2927.00
39.1776 2925.00
39.2428 2901.00
39.308 2895.00
39.3732 3024.00
39.4384 2858.00
39.5036 2952.00
39.5688 2958.00
39.634 2885.00
39.6992 2959.00
39.7644 2930.00
39.8296 2913.00
39.8948 2894.00
39.96 2816.00
40.0252 2939.00
40.0904 2912.00
40.1556 2899.00
40.2208 2923.00
40.286 2898.00
40.3512 2864.00
40.4164 2872.00
40.4816 2825.00
40.5468 2876.00
40.612 2913.00
40.6772 2840.00
40.7424 2893.00
40.8076 2917.00
40.8728 3054.00
40.938 3076.00
41.0032 2979.00
41.0684 2993.00
41.1336 2912.00
41.1988 2988.00
41.264 2973.00
41.3292 2901.00
41.3944 2906.00
41.4596 2986.00
41.5248 2890.00
41.59 2973.00
41.6552 2839.00
41.7204 2886.00
41.7856 2987.00
41.8508 2988.00
41.916 2927.00
41.9812 2922.00
42.0464 2895.00
42.1116 3040.00
42.1768 2919.00
42.242 2970.00
42.3072 3058.00
42.3724 3102.00
42.4376 3158.00
42.5028 3087.00
42.568 3034.00
42.6332 3039.00
42.6983 2813.00
42.7635 3007.00
42.8287 2817.00
42.8939 2876.00
42.9591 2907.00
43.0243 2877.00
43.0895 2876.00
43.1547 2950.00
43.2199 2962.00
43.2851 2958.00
43.3503 2914.00
43.4155 2996.00
43.4807 2924.00
43.5459 2885.00
43.6111 2863.00
43.6763 2843.00
43.7415 2869.00
43.8067 2805.00
43.8719 2878.00
43.9371 2867.00
44.0023 2771.00
44.0675 2900.00
44.1327 2857.00
44.1979 2828.00
44.2631 2859.00
44.3283 2813.00
44.3935 2866.00
44.4587 2891.00
44.5239 2879.00
44.5891 2967.00
44.6543 2894.00
44.7195 3026.00
44.7847 2998.00
44.8499 3026.00
44.9151 2938.00
44.9803 2865.00
45.0455 2945.00
45.1107 2909.00
45.1759 2864.00
45.2411 2973.00
45.3063 3114.00
45.3715 3984.00
45.4367 4396.00
45.5019 3631.00
45.5671 3381.00
45.6323 2997.00
45.6975 2942.00
45.7627 2900.00
45.8279 2876.00
45.8931 2929.00
45.9583 2775.00
46.0235 2808.00
46.0887 2875.00
46.1539 2843.00
46.2191 2789.00
46.2843 2840.00
46.3495 2980.00
46.4147 2873.00
46.4799 2818.00
46.5451 2826.00
46.6103 2883.00
46.6755 2867.00
46.7407 2726.00
46.8059 2835.00
46.8711 2797.00
46.9363 2887.00
47.0015 2782.00
47.0667 2889.00
47.1319 2853.00
47.1971 2876.00
47.2623 2837.00
47.3275 2843.00
47.3927 2791.00
47.4579 2897.00
47.523 3055.00
47.5882 3006.00
47.6534 2959.00
47.7186 2953.00
47.7838 2819.00
47.849 2897.00
47.9142 2854.00
47.9794 2795.00
48.0446 2836.00
48.1098 2861.00
48.175 2842.00
48.2402 2838.00
48.3054 2836.00
48.3706 2802.00
48.4358 2939.00
48.501 2906.00
48.5662 2821.00
48.6314 2857.00
48.6966 2916.00
48.7618 2908.00
48.827 2941.00
48.8922 2902.00
48.9574 2909.00
49.0226 2790.00
49.0878 2976.00
49.153 2920.00
49.2182 2839.00
49.2834 2979.00
49.3486 2911.00
49.4138 3003.00
49.479 3372.00
49.5442 4057.00
49.6094 4619.00
49.6746 3857.00
49.7398 3667.00
49.805 3135.00
49.8702 2898.00
49.9354 2976.00
50.0006 2777.00
50.0658 2949.00
50.131 2873.00
50.1962 2764.00
50.2614 2788.00
50.3266 2896.00
50.3918 2721.00
50.457 2856.00
50.5222 2792.00
50.5874 2847.00
50.6526 2939.00
50.7178 2861.00
50.783 2809.00
50.8482 2925.00
50.9134 2930.00
50.9786 2975.00
51.0438 2929.00
51.109 2959.00
51.1742 2814.00
51.2394 2759.00
51.3046 2801.00
51.3698 2847.00
51.435 2841.00
51.5002 2751.00
51.5654 2844.00
51.6306 2858.00
51.6958 2901.00
51.761 2802.00
51.8262 2812.00
51.8914 2716.00
51.9566 2750.00
52.0218 2745.00
52.087 2776.00
52.1522 2759.00
52.2174 2716.00
52.2826 2795.00
52.3477 2832.00
52.4129 2739.00
52.4781 2772.00
52.5433 2782.00
52.6085 2782.00
52.6737 2901.00
52.7389 2861.00
52.8041 2736.00
52.8693 2895.00
52.9345 2946.00
52.9997 2870.00
53.0649 2805.00
53.1301 2782.00
53.1953 2896.00
53.2605 2902.00
53.3257 2888.00
53.3909 2907.00
53.4561 3018.00
53.5213 3141.00
53.5865 3078.00
53.6517 3006.00
53.7169 2901.00
53.7821 2908.00
53.8473 2825.00
53.9125 2842.00
53.9777 2709.00
54.0429 2777.00
54.1081 2873.00
54.1733 2928.00
54.2385 2866.00
54.3037 2957.00
54.3689 2851.00
54.4341 2892.00
54.4993 2904.00
54.5645 2831.00
54.6297 2900.00
54.6949 2813.00
54.7601 2853.00
54.8253 2914.00
54.8905 2945.00
54.9557 2899.00
55.0209 2874.00
55.0861 2955.00
55.1513 3161.00
55.2165 3393.00
55.2817 4031.00
55.3469 5997.00
55.4121 8232.00
55.4773 6336.00
55.5425 6548.00
55.6077 5531.00
55.6729 3885.00
55.7381 3614.00
55.8033 3171.00
55.8685 2916.00
55.9337 2877.00
55.9989 2843.00
56.0641 2859.00
56.1293 2934.00
56.1945 2850.00
56.2597 2984.00
56.3249 2895.00
56.3901 2840.00
56.4553 2767.00
56.5205 2791.00
56.5857 2817.00
56.6509 2917.00
56.7161 2765.00
56.7813 2835.00
56.8465 2939.00
56.9117 2846.00
56.9769 2810.00
57.042 2741.00
57.1073 2760.00
57.1724 2786.00
57.2376 3016.00
57.3028 2956.00
57.368 2979.00
57.4332 2952.00
57.4984 2837.00
57.5636 2825.00
57.6288 2788.00
57.694 2831.00
57.7592 2840.00
57.8244 2775.00
57.8896 2744.00
57.9548 2797.00
58.02 2786.00
58.0852 2805.00
58.1504 2736.00
58.2156 2838.00
58.2808 2881.00
58.346 2778.00
58.4112 2767.00
58.4764 2779.00
58.5416 2920.00
58.6068 2776.00
58.672 2874.00
58.7372 2796.00
58.8024 2973.00
58.8676 2824.00
58.9328 2931.00
58.998 2935.00
59.0632 2888.00
59.1284 2848.00
59.1936 2878.00
59.2588 2793.00
59.324 2845.00
59.3892 2809.00
59.4544 2769.00
59.5196 2755.00
59.5848 2761.00
59.65 2862.00
59.7152 2805.00
59.7804 2794.00
59.8456 2851.00
59.9108 2789.00
59.976 2863.00
60.0412 2920.00
60.1064 3198.00
60.1716 3045.00
60.2368 2944.00
60.302 2970.00
60.3672 2869.00
60.4324 2878.00
60.4976 2828.00
60.5628 2885.00
60.628 2856.00
60.6932 2873.00
60.7584 3067.00
60.8236 3223.00
60.8888 3104.00
60.954 3078.00
61.0192 2946.00
61.0844 2953.00
61.1496 2813.00
61.2148 2891.00
61.28 2725.00
61.3452 2850.00
61.4104 2844.00
61.4756 2813.00
61.5408 2809.00
61.606 2743.00
61.6712 2742.00
61.7364 2825.00
61.8016 2726.00
61.8667 2933.00
61.932 2798.00
61.9971 2799.00
62.0623 2774.00
62.1275 2906.00
62.1927 2851.00
62.2579 2780.00
62.3231 2832.00
62.3883 2858.00
62.4535 2822.00
62.5187 2912.00
62.5839 2955.00
62.6491 2854.00
62.7143 2781.00
62.7795 2797.00
62.8447 2811.00
62.9099 2845.00
62.9751 2830.00
63.0403 2851.00
63.1055 2798.00
63.1707 2728.00
63.2359 2770.00
63.3011 2837.00
63.3663 2849.00
63.4315 2871.00
63.4967 2913.00
63.5619 2940.00
63.6271 2916.00
63.6923 2804.00
63.7575 2803.00
63.8227 2755.00
63.8879 2797.00
63.9531 2878.00
64.0183 2838.00
64.0835 2947.00
64.1487 2891.00
64.2139 3170.00
64.2791 3684.00
64.3443 3561.00
64.4095 3179.00
64.4747 3293.00
64.5399 3047.00
64.6051 2870.00
64.6703 2892.00
64.7355 2883.00
64.8007 2880.00
64.8659 2883.00
64.9311 2889.00
64.9963 2787.00
65.0615 2910.00
65.1267 2802.00
65.1919 2825.00
65.2571 2879.00
65.3223 2825.00
65.3875 2815.00
65.4527 2900.00
65.5179 2931.00
65.5831 2957.00
65.6483 2934.00
65.7135 2962.00
65.7787 3072.00
65.8439 3381.00
65.9091 4371.00
65.9743 5316.00
66.0395 4896.00
66.1047 4237.00
66.1699 4400.00
66.2351 3712.00
66.3003 3185.00
66.3655 3235.00
66.4307 3183.00
66.4959 2966.00
66.561 2925.00
66.6263 2966.00
66.6915 2840.00
66.7566 2807.00
66.8218 2870.00
66.887 2827.00
66.9522 2893.00
67.0174 2855.00
67.0826 2800.00
67.1478 2808.00
67.213 2770.00
67.2782 2798.00
67.3434 2834.00
67.4086 2852.00
67.4738 2952.00
67.539 2902.00
67.6042 3232.00
67.6694 3351.00
67.7346 3110.00
67.7998 3115.00
67.865 3154.00
67.9302 2854.00
67.9954 2890.00
68.0606 2748.00
68.1258 2781.00
68.191 2710.00
68.2562 2819.00
68.3214 2753.00
68.3866 2752.00
68.4518 2687.00
68.517 2748.00
68.5822 2759.00
68.6474 2850.00
68.7126 2859.00
68.7778 2835.00
68.843 2814.00
68.9082 2783.00
68.9734 2736.00
69.0386 2771.00
69.1038 2769.00
69.169 2945.00
69.2342 2914.00
69.2994 3199.00
69.3646 3254.00
69.4298 3097.00
69.495 3013.00
69.5602 2935.00
69.6254 2904.00
69.6906 2815.00
69.7558 2875.00
69.821 2799.00
69.8862 2860.00
69.9514 2838.00
70.0166 2748.00
70.0818 2688.00
70.147 2761.00
70.2122 2827.00
70.2774 2775.00
70.3426 2721.00
70.4078 2729.00
70.473 2810.00
70.5382 2705.00
70.6034 2783.00
70.6686 2682.00
70.7338 2740.00
70.799 2740.00
70.8642 2814.00
70.9294 2747.00
70.9946 2859.00
71.0598 2664.00
71.125 2778.00
71.1902 2721.00
71.2554 2783.00
71.3205 2887.00
71.3858 2825.00
71.451 2827.00
71.5162 2834.00
71.5813 2741.00
71.6465 2745.00
71.7117 2732.00
71.7769 2825.00
71.8421 2707.00
71.9073 2789.00
71.9725 2786.00
72.0377 2789.00
72.1029 2813.00
72.1681 2811.00
72.2333 2708.00
72.2985 2871.00
72.3637 2708.00
72.4289 2758.00
72.4941 2819.00
72.5593 2934.00
72.6245 2878.00
72.6897 2798.00
72.7549 2890.00
72.8201 2789.00
72.8853 2846.00
72.9505 2670.00
73.0157 2827.00
73.0809 2752.00
73.1461 2781.00
73.2113 2840.00
73.2765 2798.00
73.3417 2768.00
73.4069 2736.00
73.4721 2849.00
73.5373 2799.00
73.6025 2814.00
73.6677 2855.00
73.7329 2781.00
73.7981 2711.00
73.8633 2791.00
73.9285 2795.00
73.9937 2741.00
74.0589 2905.00
74.1241 2981.00
74.1893 3022.00
74.2545 2898.00
74.3197 2947.00
74.3849 3035.00
74.4501 2825.00
74.5153 2742.00
74.5805 2877.00
74.6457 2831.00
74.7109 2695.00
74.7761 2711.00
74.8413 2827.00
74.9065 2874.00
74.9717 2801.00
75.0369 2740.00
75.1021 2805.00
75.1673 2781.00
75.2325 2766.00
75.2977 2670.00
75.3629 2680.00
75.4281 2818.00
75.4933 2672.00
75.5585 2765.00
75.6237 2758.00
75.6889 2798.00
75.7541 2911.00
75.8193 2824.00
75.8845 2797.00
75.9497 2818.00
76.0149 2763.00
76.0801 2766.00
76.1452 2870.00
76.2104 2601.00
76.2756 2827.00
76.3409 2779.00
76.406 2755.00
76.4712 2729.00
76.5364 2801.00
76.6016 2887.00
76.6668 2801.00
76.732 2876.00
76.7972 2759.00
76.8624 2845.00
76.9276 2681.00
76.9928 2729.00
77.058 2669.00
77.1232 2818.00
77.1884 2784.00
77.2536 2700.00
77.3188 2689.00
77.384 2684.00
77.4492 2685.00
77.5144 2744.00
77.5796 2647.00
77.6448 2715.00
77.71 2837.00
77.7752 2832.00
77.8404 2803.00
77.9056 2748.00
77.9708 2742.00
78.036 2796.00
78.1012 2705.00
78.1664 2711.00
78.2316 2784.00
78.2968 2726.00
78.362 2725.00
78.4272 2790.00
78.4924 2808.00
78.5576 2799.00
78.6228 2675.00
78.688 2688.00
78.7532 2771.00
78.8184 2722.00
78.8836 2708.00
78.9488 2683.00
79.014 2661.00
79.0792 2824.00
79.1444 2675.00
79.2096 2622.00
79.2748 2743.00
79.34 2786.00
79.4052 2751.00
79.4704 2755.00
79.5356 2733.00
79.6008 2823.00
79.666 2759.00
79.7312 2693.00
79.7964 2742.00
79.8616 2750.00
79.9268 2798.00
79.992 2774.00
80.0572 2735.00
80.1224 2740.00
80.1876 2776.00
80.2528 2810.00
80.318 2865.00
80.3832 2916.00
80.4484 2850.00
80.5136 2807.00
80.5788 2728.00
80.644 2896.00
80.7092 2794.00
80.7744 2707.00
80.8396 2785.00
80.9048 2720.00
80.9699 2756.00
81.0351 2721.00
81.1003 2701.00
81.1655 2791.00
81.2307 2673.00
81.2959 2721.00
81.3611 2706.00
81.4263 2731.00
81.4915 2742.00
81.5567 2748.00
81.6219 2803.00
81.6871 2698.00
81.7523 2734.00
81.8175 2800.00
81.8827 2909.00
81.9479 2963.00
82.0131 3083.00
82.0783 2978.00
82.1435 2841.00
82.2087 2868.00
82.2739 2870.00
82.3391 2955.00
82.4043 2803.00
82.4695 2786.00
82.5347 2817.00
82.5999 2806.00
82.6651 2736.00
82.7303 2758.00
82.7955 2864.00
82.8607 2750.00
82.9259 2819.00
82.9911 2784.00
83.0563 2818.00
83.1215 2791.00
83.1867 2710.00
83.2519 2807.00
83.3171 2745.00
83.3823 2745.00
83.4475 2929.00
83.5127 2984.00
83.5779 2978.00
83.6431 2858.00
83.7083 2928.00
83.7735 2939.00
83.8387 2800.00
83.9039 2723.00
83.9691 2812.00
84.0343 2742.00
84.0995 2802.00
84.1647 2805.00
84.2299 2766.00
84.2951 2756.00
84.3603 2758.00
84.4255 2797.00
84.4907 2796.00
84.5559 2834.00
84.6211 2690.00
84.6863 2812.00
84.7515 2772.00
84.8167 2874.00
84.8819 2717.00
84.9471 2735.00
85.0123 2822.00
85.0775 2917.00
85.1427 2871.00
85.2079 2817.00
85.2731 2797.00
85.3383 2767.00
85.4035 2773.00
85.4687 2741.00
85.5339 2736.00
85.5991 2822.00
85.6643 2712.00
85.7295 2727.00
85.7946 2771.00
85.8598 2772.00
85.925 2712.00
85.9903 2801.00
86.0554 2761.00
86.1206 2657.00
86.1858 2694.00
86.251 2732.00
86.3162 2773.00
86.3814 2699.00
86.4466 2810.00
86.5118 2707.00
86.577 2834.00
86.6422 2870.00
86.7074 2794.00
86.7726 2789.00
86.8378 2792.00
86.903 2872.00
86.9682 2728.00
87.0334 2824.00
87.0986 2698.00
87.1638 2745.00
87.229 2816.00
87.2942 2750.00
87.3594 2705.00
87.4246 2688.00
87.4898 2785.00
87.555 2724.00
87.6202 2699.00
87.6854 2700.00
87.7506 2686.00
87.8158 2701.00
87.881 2624.00
87.9462 2795.00
88.0114 2749.00
88.0766 2694.00
88.1418 2833.00
88.207 2756.00
88.2722 2847.00
88.3374 2816.00
88.4026 2785.00
88.4678 2819.00
88.533 2690.00
88.5982 2721.00
88.6634 2717.00
88.7286 2763.00
88.7938 2735.00
88.859 2766.00
88.9242 2800.00
88.9894 2761.00
89.0546 2721.00
89.1198 2729.00
89.185 2728.00
89.2502 2776.00
89.3154 2756.00
89.3806 2731.00
89.4458 2766.00
89.511 2875.00
89.5762 2773.00
89.6414 2817.00
89.7066 2902.00
89.7718 2830.00
89.837 2823.00
89.9022 2790.00
89.9674 2739.00
90.0326 2776.00
90.0978 2760.00
90.163 2759.00
90.2282 2648.00
90.2934 2744.00
90.3586 2751.00
90.4238 2780.00
90.489 2633.00
90.5542 2693.00
90.6193 2799.00
90.6845 2629.00
90.7497 2727.00
90.8149 2784.00
90.8801 2833.00
90.9453 2714.00
91.0105 2822.00
91.0757 2977.00
91.1409 3104.00
91.2061 3253.00
91.2713 3029.00
91.3365 2936.00
91.4017 2964.00
91.4669 3024.00
91.5321 3032.00
91.5973 2874.00
91.6625 2817.00
91.7277 2802.00
91.7929 2748.00
91.8581 2753.00
91.9233 2821.00
91.9885 2773.00
92.0537 2771.00
92.1189 2763.00
92.1841 2717.00
92.2493 2673.00
92.3145 2680.00
92.3797 2699.00
92.4449 2666.00
92.5101 2719.00
92.5753 2759.00
92.6405 2667.00
92.7057 2736.00
92.7709 2796.00
92.8361 2734.00
92.9013 2691.00
92.9665 2688.00
93.0317 2735.00
93.0969 2716.00
93.1621 2633.00
93.2273 2805.00
93.2925 2794.00
93.3577 2696.00
93.4229 2679.00
93.4881 2707.00
93.5533 2740.00
93.6185 2710.00
93.6837 2683.00
93.7489 2692.00
93.8141 2708.00
93.8793 2722.00
93.9445 2717.00
94.0097 2829.00
94.0749 2878.00
94.1401 2941.00
94.2053 2976.00
94.2705 3046.00
94.3357 2914.00
94.4009 2865.00
94.4661 2944.00
94.5313 2820.00
94.5965 2906.00
94.6617 2809.00
94.7269 2887.00
94.7921 2735.00
94.8573 2665.00
94.9225 2774.00
94.9877 2795.00
95.0529 2729.00
95.1181 2740.00
95.1833 2714.00
95.2485 2739.00
95.3137 2764.00
95.3789 2778.00
95.444 2722.00
95.5092 2620.00
95.5744 2682.00
95.6396 2663.00
95.7048 2692.00
95.77 2840.00
95.8352 2813.00
95.9004 2658.00
95.9656 2714.00
96.0308 2746.00
96.096 2737.00
96.1612 2728.00
96.2264 2798.00
96.2916 2776.00
96.3568 2737.00
96.422 2679.00
96.4872 2676.00
96.5524 2704.00
96.6176 2702.00
96.6828 2813.00
96.748 2688.00
96.8132 2720.00
96.8784 2735.00
96.9436 2654.00
97.0088 2744.00
97.074 2651.00
97.1392 2714.00
97.2044 2810.00
97.2696 2706.00
97.3348 2726.00
97.4 2736.00
97.4652 2688.00
97.5304 2733.00
97.5956 2789.00
97.6608 2712.00
97.726 2704.00
97.7912 2676.00
97.8564 2724.00
97.9216 2693.00
97.9868 2778.00
98.052 2745.00
98.1172 2652.00
98.1824 2738.00
98.2476 2669.00
98.3128 2777.00
98.378 2760.00
98.4432 2746.00
98.5084 2726.00
98.5736 2648.00
98.6388 2675.00
98.704 2721.00
98.7692 2702.00
98.8344 2813.00
98.8996 2879.00
98.9648 2916.00
99.03 2710.00
99.0952 2779.00
99.1604 2732.00
99.2256 2874.00
99.2908 2724.00
99.356 2664.00
99.4212 2743.00
99.4864 2782.00
99.5516 2758.00
99.6168 2684.00
99.682 2763.00
99.7472 2687.00
99.8124 2637.00
99.8776 2755.00
99.9428 2656.00
100.008 2785.00
100.073 2705.00
100.095 2607.00