File: data/xrd_creation/results/PG_2144-1.xy
9.903433 2543.00
9.968632 2535.00
10.0338 2586.00
10.099 2425.00
10.1642 2484.00
10.2294 2435.00
10.2946 2373.00
10.3598 2374.00
10.425 2318.00
10.4902 2381.00
10.5554 2382.00
10.6206 2288.00
10.6858 2341.00
10.751 2302.00
10.8162 2241.00
10.8814 2274.00
10.9466 2208.00
11.0118 2202.00
11.077 2167.00
11.1422 2129.00
11.2074 2113.00
11.2726 2159.00
11.3378 2204.00
11.403 2112.00
11.4682 2101.00
11.5334 2088.00
11.5986 2090.00
11.6638 1989.00
11.729 2029.00
11.7942 2009.00
11.8594 2006.00
11.9246 1904.00
11.9898 1938.00
12.055 1956.00
12.1202 1920.00
12.1854 1905.00
12.2506 1925.00
12.3158 1901.00
12.381 1827.00
12.4462 1886.00
12.5114 1872.00
12.5766 1800.00
12.6418 1886.00
12.707 1818.00
12.7722 1774.00
12.8374 1731.00
12.9026 1830.00
12.9678 1825.00
13.033 1782.00
13.0982 1722.00
13.1634 1772.00
13.2286 1775.00
13.2938 1764.00
13.359 1716.00
13.4242 1713.00
13.4894 1803.00
13.5546 1744.00
13.6198 1710.00
13.685 1739.00
13.7502 1684.00
13.8154 1624.00
13.8805 1666.00
13.9457 1642.00
14.0109 1680.00
14.0761 1642.00
14.1413 1688.00
14.2065 1567.00
14.2717 1578.00
14.3369 1682.00
14.4021 1632.00
14.4673 1628.00
14.5325 1614.00
14.5977 1587.00
14.6629 1514.00
14.7281 1602.00
14.7933 1663.00
14.8585 1548.00
14.9237 1618.00
14.9889 1564.00
15.0541 1565.00
15.1193 1616.00
15.1845 1536.00
15.2497 1661.00
15.3149 1674.00
15.3801 1720.00
15.4453 1779.00
15.5105 1781.00
15.5757 2034.00
15.6409 2181.00
15.7061 2459.00
15.7713 2952.00
15.8365 3837.00
15.9017 4708.00
15.9669 5391.00
16.0321 4436.00
16.0973 3009.00
16.1625 2283.00
16.2277 1844.00
16.2929 1800.00
16.3581 1718.00
16.4233 1567.00
16.4885 1578.00
16.5537 1542.00
16.6189 1492.00
16.6841 1427.00
16.7493 1469.00
16.8145 1493.00
16.8797 1502.00
16.9449 1416.00
17.0101 1411.00
17.0753 1437.00
17.1405 1384.00
17.2057 1337.00
17.2709 1366.00
17.3361 1381.00
17.4013 1441.00
17.4665 1339.00
17.5317 1376.00
17.5969 1400.00
17.6621 1420.00
17.7273 1329.00
17.7925 1344.00
17.8577 1344.00
17.9229 1301.00
17.9881 1241.00
18.0533 1323.00
18.1185 1335.00
18.1837 1371.00
18.2489 1292.00
18.3141 1285.00
18.3793 1284.00
18.4445 1343.00
18.5097 1275.00
18.5749 1273.00
18.6401 1279.00
18.7052 1298.00
18.7704 1327.00
18.8356 1173.00
18.9008 1251.00
18.966 1310.00
19.0312 1273.00
19.0964 1248.00
19.1616 1245.00
19.2268 1196.00
19.292 1217.00
19.3572 1203.00
19.4224 1173.00
19.4876 1203.00
19.5528 1165.00
19.618 1191.00
19.6832 1177.00
19.7484 1207.00
19.8136 1164.00
19.8788 1158.00
19.944 1144.00
20.0092 1135.00
20.0744 1176.00
20.1396 1154.00
20.2048 1170.00
20.27 1158.00
20.3352 1136.00
20.4004 1146.00
20.4656 1156.00
20.5308 1173.00
20.596 1160.00
20.6612 1135.00
20.7264 1125.00
20.7916 1058.00
20.8568 1129.00
20.922 1131.00
20.9872 1108.00
21.0524 1113.00
21.1176 1125.00
21.1828 1115.00
21.248 1129.00
21.3132 1070.00
21.3784 1070.00
21.4436 1057.00
21.5088 1074.00
21.574 1031.00
21.6392 1090.00
21.7044 1087.00
21.7696 1010.00
21.8348 1065.00
21.9 1081.00
21.9652 1031.00
22.0304 1095.00
22.0956 998.00
22.1608 1068.00
22.226 1065.00
22.2912 1004.00
22.3564 1082.00
22.4216 1088.00
22.4868 1051.00
22.552 1026.00
22.6172 1066.00
22.6824 1019.00
22.7476 940.00
22.8128 1042.00
22.878 1031.00
22.9432 1014.00
23.0084 950.00
23.0736 1007.00
23.1388 1011.00
23.204 990.00
23.2692 997.00
23.3344 981.00
23.3996 957.00
23.4647 1014.00
23.5299 1047.00
23.5951 990.00
23.6603 931.00
23.7255 974.00
23.7907 912.00
23.8559 1041.00
23.9211 948.00
23.9863 984.00
24.0515 957.00
24.1167 965.00
24.1819 977.00
24.2471 940.00
24.3123 1018.00
24.3775 960.00
24.4427 889.00
24.5079 927.00
24.5731 924.00
24.6383 976.00
24.7035 916.00
24.7687 938.00
24.8339 956.00
24.8991 886.00
24.9643 884.00
25.0295 939.00
25.0947 905.00
25.1599 911.00
25.2251 917.00
25.2903 943.00
25.3555 889.00
25.4207 910.00
25.4859 912.00
25.5511 951.00
25.6163 895.00
25.6815 876.00
25.7467 934.00
25.8119 985.00
25.8771 928.00
25.9423 937.00
26.0075 978.00
26.0727 977.00
26.1379 948.00
26.2031 1034.00
26.2683 1094.00
26.3335 1215.00
26.3987 1134.00
26.4639 1328.00
26.5291 1407.00
26.5943 1693.00
26.6595 2084.00
26.7247 3005.00
26.7899 4711.00
26.8551 7494.00
26.9203 9042.00
26.9855 6006.00
27.0507 3201.00
27.1159 2111.00
27.1811 1801.00
27.2463 1716.00
27.3115 1782.00
27.3767 2137.00
27.4419 2731.00
27.5071 3771.00
27.5723 4520.00
27.6375 4302.00
27.7027 3120.00
27.7679 2326.00
27.8331 1931.00
27.8983 1805.00
27.9635 1824.00
28.0287 2074.00
28.0939 2610.00
28.1591 3675.00
28.2243 5153.00
28.2894 5995.00
28.3546 5020.00
28.4198 3424.00
28.485 2312.00
28.5502 1603.00
28.6154 1334.00
28.6806 1166.00
28.7458 1071.00
28.811 1031.00
28.8762 943.00
28.9414 905.00
29.0066 842.00
29.0718 831.00
29.137 885.00
29.2022 889.00
29.2674 877.00
29.3326 825.00
29.3978 807.00
29.463 856.00
29.5282 856.00
29.5934 818.00
29.6586 804.00
29.7238 837.00
29.789 826.00
29.8542 785.00
29.9194 795.00
29.9846 725.00
30.0498 775.00
30.115 778.00
30.1802 752.00
30.2454 731.00
30.3106 697.00
30.3758 733.00
30.441 749.00
30.5062 706.00
30.5714 733.00
30.6366 711.00
30.7018 683.00
30.767 745.00
30.8322 748.00
30.8974 717.00
30.9626 754.00
31.0278 818.00
31.093 717.00
31.1582 728.00
31.2234 682.00
31.2886 702.00
31.3538 746.00
31.419 718.00
31.4842 789.00
31.5494 768.00
31.6146 846.00
31.6798 986.00
31.745 1127.00
31.8102 1317.00
31.8754 1491.00
31.9406 1573.00
32.0058 1376.00
32.071 1028.00
32.1362 975.00
32.2014 858.00
32.2666 713.00
32.3318 725.00
32.397 662.00
32.4622 691.00
32.5274 699.00
32.5926 768.00
32.6578 688.00
32.723 681.00
32.7882 687.00
32.8534 693.00
32.9186 659.00
32.9838 693.00
33.0489 696.00
33.1141 722.00
33.1793 705.00
33.2445 705.00
33.3097 732.00
33.3749 722.00
33.4401 789.00
33.5053 762.00
33.5705 745.00
33.6357 802.00
33.7009 855.00
33.7661 966.00
33.8313 1036.00
33.8965 1257.00
33.9617 1676.00
34.0269 2482.00
34.0921 4163.00
34.1573 6951.00
34.2225 6920.00
34.2877 4749.00
34.3529 2525.00
34.4181 1503.00
34.4833 1160.00
34.5485 935.00
34.6137 858.00
34.6789 798.00
34.7441 720.00
34.8093 701.00
34.8745 700.00
34.9397 620.00
35.0049 622.00
35.0701 659.00
35.1353 686.00
35.2005 632.00
35.2657 645.00
35.3309 627.00
35.3961 621.00
35.4613 591.00
35.5265 652.00
35.5917 619.00
35.6569 599.00
35.7221 639.00
35.7873 635.00
35.8525 637.00
35.9177 607.00
35.9829 646.00
36.0481 623.00
36.1133 764.00
36.1785 768.00
36.2437 836.00
36.3089 988.00
36.3741 879.00
36.4393 857.00
36.5045 725.00
36.5697 672.00
36.6349 647.00
36.7001 629.00
36.7653 619.00
36.8305 612.00
36.8957 576.00
36.9609 584.00
37.0261 577.00
37.0913 560.00
37.1565 569.00
37.2217 632.00
37.2869 581.00
37.3521 562.00
37.4173 585.00
37.4825 540.00
37.5477 600.00
37.6129 616.00
37.6781 606.00
37.7433 592.00
37.8085 621.00
37.8736 645.00
37.9388 659.00
38.004 803.00
38.0692 926.00
38.1344 1251.00
38.1996 1904.00
38.2648 2525.00
38.33 2076.00
38.3952 1442.00
38.4604 918.00
38.5256 767.00
38.5908 659.00
38.656 652.00
38.7212 625.00
38.7864 660.00
38.8516 655.00
38.9168 632.00
38.982 634.00
39.0472 636.00
39.1124 750.00
39.1776 872.00
39.2428 1089.00
39.308 1172.00
39.3732 1159.00
39.4384 1154.00
39.5036 1366.00
39.5688 1794.00
39.634 2473.00
39.6992 3291.00
39.7644 3924.00
39.8296 3724.00
39.8948 3000.00
39.96 2285.00
40.0252 1584.00
40.0904 1144.00
40.1556 941.00
40.2208 861.00
40.286 684.00
40.3512 653.00
40.4164 650.00
40.4816 598.00
40.5468 589.00
40.612 567.00
40.6772 583.00
40.7424 564.00
40.8076 532.00
40.8728 544.00
40.938 517.00
41.0032 505.00
41.0684 525.00
41.1336 541.00
41.1988 499.00
41.264 541.00
41.3292 526.00
41.3944 501.00
41.4596 520.00
41.5248 479.00
41.59 530.00
41.6552 535.00
41.7204 504.00
41.7856 509.00
41.8508 489.00
41.916 478.00
41.9812 563.00
42.0464 536.00
42.1116 524.00
42.1768 600.00
42.242 632.00
42.3072 676.00
42.3724 835.00
42.4376 1007.00
42.5028 1088.00
42.568 1068.00
42.6332 916.00
42.6983 830.00
42.7635 712.00
42.8287 700.00
42.8939 677.00
42.9591 664.00
43.0243 627.00
43.0895 566.00
43.1547 512.00
43.2199 517.00
43.2851 463.00
43.3503 500.00
43.4155 478.00
43.4807 489.00
43.5459 496.00
43.6111 465.00
43.6763 469.00
43.7415 479.00
43.8067 483.00
43.8719 493.00
43.9371 495.00
44.0023 489.00
44.0675 435.00
44.1327 483.00
44.1979 461.00
44.2631 417.00
44.3283 445.00
44.3935 468.00
44.4587 448.00
44.5239 470.00
44.5891 457.00
44.6543 432.00
44.7195 480.00
44.7847 434.00
44.8499 449.00
44.9151 413.00
44.9803 451.00
45.0455 446.00
45.1107 420.00
45.1759 449.00
45.2411 481.00
45.3063 467.00
45.3715 436.00
45.4367 418.00
45.5019 462.00
45.5671 427.00
45.6323 431.00
45.6975 412.00
45.7627 427.00
45.8279 395.00
45.8931 410.00
45.9583 442.00
46.0235 428.00
46.0887 489.00
46.1539 406.00
46.2191 494.00
46.2843 446.00
46.3495 406.00
46.4147 464.00
46.4799 461.00
46.5451 456.00
46.6103 447.00
46.6755 455.00
46.7407 461.00
46.8059 496.00
46.8711 490.00
46.9363 524.00
47.0015 493.00
47.0667 529.00
47.1319 567.00
47.1971 749.00
47.2623 812.00
47.3275 966.00
47.3927 1038.00
47.4579 1012.00
47.523 899.00
47.5882 798.00
47.6534 709.00
47.7186 568.00
47.7838 529.00
47.849 581.00
47.9142 622.00
47.9794 599.00
48.0446 638.00
48.1098 670.00
48.175 782.00
48.2402 936.00
48.3054 1136.00
48.3706 1366.00
48.4358 1713.00
48.501 1844.00
48.5662 1921.00
48.6314 1961.00
48.6966 1984.00
48.7618 2314.00
48.827 2628.00
48.8922 3096.00
48.9574 3129.00
49.0226 2995.00
49.0878 2415.00
49.153 1848.00
49.2182 1450.00
49.2834 1098.00
49.3486 915.00
49.4138 752.00
49.479 695.00
49.5442 617.00
49.6094 592.00
49.6746 558.00
49.7398 526.00
49.805 532.00
49.8702 565.00
49.9354 570.00
50.0006 582.00
50.0658 663.00
50.131 749.00
50.1962 886.00
50.2614 854.00
50.3266 758.00
50.3918 730.00
50.457 629.00
50.5222 558.00
50.5874 527.00
50.6526 500.00
50.7178 501.00
50.783 493.00
50.8482 493.00
50.9134 501.00
50.9786 511.00
51.0438 496.00
51.109 496.00
51.1742 464.00
51.2394 466.00
51.3046 464.00
51.3698 509.00
51.435 529.00
51.5002 605.00
51.5654 596.00
51.6306 606.00
51.6958 767.00
51.761 928.00
51.8262 1028.00
51.8914 1547.00
51.9566 2768.00
52.0218 5059.00
52.087 6189.00
52.1522 4384.00
52.2174 3876.00
52.2826 2030.00
52.3477 1187.00
52.4129 873.00
52.4781 682.00
52.5433 635.00
52.6085 605.00
52.6737 529.00
52.7389 506.00
52.8041 498.00
52.8693 442.00
52.9345 479.00
52.9997 456.00
53.0649 441.00
53.1301 452.00
53.1953 465.00
53.2605 461.00
53.3257 473.00
53.3909 441.00
53.4561 434.00
53.5213 439.00
53.5865 429.00
53.6517 394.00
53.7169 398.00
53.7821 384.00
53.8473 440.00
53.9125 469.00
53.9777 454.00
54.0429 391.00
54.1081 401.00
54.1733 421.00
54.2385 416.00
54.3037 407.00
54.3689 391.00
54.4341 443.00
54.4993 437.00
54.5645 470.00
54.6297 498.00
54.6949 505.00
54.7601 541.00
54.8253 619.00
54.8905 784.00
54.9557 1172.00
55.0209 1770.00
55.0861 1635.00
55.1513 1374.00
55.2165 1254.00
55.2817 908.00
55.3469 851.00
55.4121 884.00
55.4773 1068.00
55.5425 1270.00
55.6077 1265.00
55.6729 1135.00
55.7381 909.00
55.8033 821.00
55.8685 624.00
55.9337 603.00
55.9989 552.00
56.0641 522.00
56.1293 498.00
56.1945 492.00
56.2597 514.00
56.3249 530.00
56.3901 615.00
56.4553 690.00
56.5205 849.00
56.5857 793.00
56.6509 769.00
56.7161 702.00
56.7813 577.00
56.8465 574.00
56.9117 518.00
56.9769 467.00
57.042 454.00
57.1073 441.00
57.1724 408.00
57.2376 412.00
57.3028 420.00
57.368 402.00
57.4332 405.00
57.4984 433.00
57.5636 450.00
57.6288 418.00
57.694 434.00
57.7592 483.00
57.8244 520.00
57.8896 628.00
57.9548 653.00
58.02 859.00
58.0852 1132.00
58.1504 1098.00
58.2156 958.00
58.2808 880.00
58.346 695.00
58.4112 579.00
58.4764 503.00
58.5416 455.00
58.6068 444.00
58.672 476.00
58.7372 456.00
58.8024 476.00
58.8676 495.00
58.9328 507.00
58.998 605.00
59.0632 561.00
59.1284 540.00
59.1936 522.00
59.2588 509.00
59.324 477.00
59.3892 437.00
59.4544 416.00
59.5196 430.00
59.5848 376.00
59.65 372.00
59.7152 366.00
59.7804 372.00
59.8456 371.00
59.9108 346.00
59.976 354.00
60.0412 371.00
60.1064 335.00
60.1716 369.00
60.2368 356.00
60.302 339.00
60.3672 342.00
60.4324 390.00
60.4976 353.00
60.5628 357.00
60.628 374.00
60.6932 381.00
60.7584 333.00
60.8236 354.00
60.8888 338.00
60.954 369.00
61.0192 350.00
61.0844 334.00
61.1496 317.00
61.2148 324.00
61.28 369.00
61.3452 350.00
61.4104 356.00
61.4756 387.00
61.5408 351.00
61.606 368.00
61.6712 445.00
61.7364 406.00
61.8016 406.00
61.8667 486.00
61.932 515.00
61.9971 652.00
62.0623 872.00
62.1275 1422.00
62.1927 1371.00
62.2579 1095.00
62.3231 1101.00
62.3883 777.00
62.4535 543.00
62.5187 474.00
62.5839 459.00
62.6491 390.00
62.7143 391.00
62.7795 393.00
62.8447 409.00
62.9099 419.00
62.9751 385.00
63.0403 370.00
63.1055 376.00
63.1707 380.00
63.2359 389.00
63.3011 381.00
63.3663 353.00
63.4315 385.00
63.4967 387.00
63.5619 390.00
63.6271 394.00
63.6923 431.00
63.7575 416.00
63.8227 470.00
63.8879 522.00
63.9531 522.00
64.0183 646.00
64.0835 720.00
64.1487 805.00
64.2139 949.00
64.2791 1017.00
64.3443 956.00
64.4095 903.00
64.4747 884.00
64.5399 769.00
64.6051 689.00
64.6703 631.00
64.7355 648.00
64.8007 710.00
64.8659 809.00
64.9311 1113.00
64.9963 1533.00
65.0615 1386.00
65.1267 1224.00
65.1919 1271.00
65.2571 979.00
65.3223 847.00
65.3875 740.00
65.4527 687.00
65.5179 616.00
65.5831 573.00
65.6483 515.00
65.7135 553.00
65.7787 523.00
65.8439 495.00
65.9091 521.00
65.9743 579.00
66.0395 706.00
66.1047 938.00
66.1699 1366.00
66.2351 1976.00
66.3003 1460.00
66.3655 1238.00
66.4307 1306.00
66.4959 876.00
66.561 633.00
66.6263 508.00
66.6915 442.00
66.7566 401.00
66.8218 394.00
66.887 377.00
66.9522 372.00
67.0174 386.00
67.0826 350.00
67.1478 344.00
67.213 348.00
67.2782 347.00
67.3434 364.00
67.4086 338.00
67.4738 357.00
67.539 357.00
67.6042 341.00
67.6694 364.00
67.7346 324.00
67.7998 333.00
67.865 362.00
67.9302 341.00
67.9954 333.00
68.0606 311.00
68.1258 273.00
68.191 326.00
68.2562 353.00
68.3214 346.00
68.3866 322.00
68.4518 326.00
68.517 322.00
68.5822 336.00
68.6474 307.00
68.7126 341.00
68.7778 331.00
68.843 343.00
68.9082 342.00
68.9734 364.00
69.0386 355.00
69.1038 401.00
69.169 365.00
69.2342 360.00
69.2994 378.00
69.3646 400.00
69.4298 418.00
69.495 421.00
69.5602 489.00
69.6254 514.00
69.6906 545.00
69.7558 637.00
69.821 682.00
69.8862 774.00
69.9514 840.00
70.0166 782.00
70.0818 791.00
70.147 699.00
70.2122 670.00
70.2774 547.00
70.3426 511.00
70.4078 443.00
70.473 417.00
70.5382 379.00
70.6034 430.00
70.6686 422.00
70.7338 396.00
70.799 414.00
70.8642 435.00
70.9294 408.00
70.9946 434.00
71.0598 471.00
71.125 526.00
71.1902 529.00
71.2554 530.00
71.3205 503.00
71.3858 611.00
71.451 731.00
71.5162 916.00
71.5813 861.00
71.6465 719.00
71.7117 727.00
71.7769 642.00
71.8421 535.00
71.9073 414.00
71.9725 380.00
72.0377 378.00
72.1029 359.00
72.1681 322.00
72.2333 327.00
72.2985 365.00
72.3637 350.00
72.4289 307.00
72.4941 295.00
72.5593 313.00
72.6245 312.00
72.6897 387.00
72.7549 339.00
72.8201 399.00
72.8853 401.00
72.9505 384.00
73.0157 375.00
73.0809 375.00
73.1461 437.00
73.2113 367.00
73.2765 400.00
73.3417 337.00
73.4069 343.00
73.4721 352.00
73.5373 311.00
73.6025 322.00
73.6677 356.00
73.7329 354.00
73.7981 308.00
73.8633 301.00
73.9285 319.00
73.9937 303.00
74.0589 311.00
74.1241 332.00
74.1893 316.00
74.2545 369.00
74.3197 318.00
74.3849 311.00
74.4501 336.00
74.5153 361.00
74.5805 315.00
74.6457 329.00
74.7109 307.00
74.7761 344.00
74.8413 331.00
74.9065 305.00
74.9717 301.00
75.0369 325.00
75.1021 357.00
75.1673 313.00
75.2325 323.00
75.2977 342.00
75.3629 348.00
75.4281 330.00
75.4933 319.00
75.5585 330.00
75.6237 329.00
75.6889 380.00
75.7541 403.00
75.8193 469.00
75.8845 422.00
75.9497 480.00
76.0149 563.00
76.0801 583.00
76.1452 589.00
76.2104 558.00
76.2756 568.00
76.3409 606.00
76.406 563.00
76.4712 604.00
76.5364 637.00
76.6016 622.00
76.6668 620.00
76.732 593.00
76.7972 588.00
76.8624 467.00
76.9276 583.00
76.9928 502.00
77.058 529.00
77.1232 584.00
77.1884 569.00
77.2536 589.00
77.3188 705.00
77.384 796.00
77.4492 744.00
77.5144 841.00
77.5796 890.00
77.6448 916.00
77.71 957.00
77.7752 922.00
77.8404 905.00
77.9056 866.00
77.9708 775.00
78.036 735.00
78.1012 650.00
78.1664 645.00
78.2316 552.00
78.2968 489.00
78.362 515.00
78.4272 543.00
78.4924 479.00
78.5576 511.00
78.6228 550.00
78.688 545.00
78.7532 676.00
78.8184 810.00
78.8836 977.00
78.9488 1322.00
79.014 1140.00
79.0792 830.00
79.1444 926.00
79.2096 903.00
79.2748 579.00
79.34 489.00
79.4052 399.00
79.4704 408.00
79.5356 437.00
79.6008 345.00
79.666 333.00
79.7312 345.00
79.7964 334.00
79.8616 319.00
79.9268 321.00
79.992 277.00
80.0572 327.00
80.1224 343.00
80.1876 301.00
80.2528 304.00
80.318 351.00
80.3832 304.00
80.4484 324.00
80.5136 302.00
80.5788 292.00
80.644 320.00
80.7092 319.00
80.7744 304.00
80.8396 342.00
80.9048 349.00
80.9699 314.00
81.0351 375.00
81.1003 365.00
81.1655 359.00
81.2307 384.00
81.2959 466.00
81.3611 552.00
81.4263 559.00
81.4915 489.00
81.5567 415.00
81.6219 531.00
81.6871 436.00
81.7523 395.00
81.8175 341.00
81.8827 346.00
81.9479 372.00
82.0131 324.00
82.0783 368.00
82.1435 353.00
82.2087 357.00
82.2739 370.00
82.3391 396.00
82.4043 477.00
82.4695 455.00
82.5347 472.00
82.5999 517.00
82.6651 484.00
82.7303 444.00
82.7955 440.00
82.8607 405.00
82.9259 414.00
82.9911 391.00
83.0563 332.00
83.1215 326.00
83.1867 345.00
83.2519 310.00
83.3171 345.00
83.3823 312.00
83.4475 313.00
83.5127 307.00
83.5779 317.00
83.6431 381.00
83.7083 379.00
83.7735 460.00
83.8387 551.00
83.9039 794.00
83.9691 915.00
84.0343 711.00
84.0995 598.00
84.1647 660.00
84.2299 642.00
84.2951 477.00
84.3603 404.00
84.4255 358.00
84.4907 355.00
84.5559 335.00
84.6211 330.00
84.6863 351.00
84.7515 313.00
84.8167 327.00
84.8819 326.00
84.9471 343.00
85.0123 353.00
85.0775 361.00
85.1427 329.00
85.2079 336.00
85.2731 350.00
85.3383 340.00
85.4035 359.00
85.4687 353.00
85.5339 322.00
85.5991 338.00
85.6643 313.00
85.7295 334.00
85.7946 308.00
85.8598 308.00
85.925 327.00
85.9903 335.00
86.0554 305.00
86.1206 335.00
86.1858 352.00
86.251 296.00
86.3162 323.00
86.3814 282.00
86.4466 313.00
86.5118 321.00
86.577 313.00
86.6422 307.00
86.7074 298.00
86.7726 329.00
86.8378 303.00
86.903 312.00
86.9682 321.00
87.0334 334.00
87.0986 293.00
87.1638 335.00
87.229 317.00
87.2942 350.00
87.3594 407.00
87.4246 573.00
87.4898 604.00
87.555 479.00
87.6202 449.00
87.6854 438.00
87.7506 436.00
87.8158 394.00
87.881 335.00
87.9462 348.00
88.0114 337.00
88.0766 359.00
88.1418 342.00
88.207 345.00
88.2722 334.00
88.3374 358.00
88.4026 363.00
88.4678 371.00
88.533 367.00
88.5982 398.00
88.6634 422.00
88.7286 440.00
88.7938 472.00
88.859 562.00
88.9242 583.00
88.9894 569.00
89.0546 560.00
89.1198 563.00
89.185 521.00
89.2502 536.00
89.3154 471.00
89.3806 479.00
89.4458 456.00
89.511 467.00
89.5762 376.00
89.6414 468.00
89.7066 441.00
89.7718 487.00
89.837 547.00
89.9022 735.00
89.9674 993.00
90.0326 1059.00
90.0978 803.00
90.163 757.00
90.2282 767.00
90.2934 807.00
90.3586 706.00
90.4238 658.00
90.489 566.00
90.5542 543.00
90.6193 504.00
90.6845 539.00
90.7497 563.00
90.8149 550.00
90.8801 588.00
90.9453 620.00
91.0105 742.00
91.0757 917.00
91.1409 1087.00
91.2061 825.00
91.2713 671.00
91.3365 724.00
91.4017 833.00
91.4669 727.00
91.5321 564.00
91.5973 514.00
91.6625 461.00
91.7277 411.00
91.7929 449.00
91.8581 385.00
91.9233 372.00
91.9885 390.00
92.0537 361.00
92.1189 359.00
92.1841 358.00
92.2493 346.00
92.3145 322.00
92.3797 335.00
92.4449 332.00
92.5101 325.00
92.5753 336.00
92.6405 352.00
92.7057 318.00
92.7709 335.00
92.8361 336.00
92.9013 341.00
92.9665 356.00
93.0317 318.00
93.0969 352.00
93.1621 362.00
93.2273 345.00
93.2925 390.00
93.3577 435.00
93.4229 507.00
93.4881 577.00
93.5533 583.00
93.6185 488.00
93.6837 455.00
93.7489 444.00
93.8141 529.00
93.8793 444.00
93.9445 410.00
94.0097 343.00
94.0749 348.00
94.1401 349.00
94.2053 300.00
94.2705 287.00
94.3357 289.00
94.4009 335.00
94.4661 331.00
94.5313 323.00
94.5965 313.00
94.6617 270.00
94.7269 292.00
94.7921 309.00
94.8573 309.00
94.9225 303.00
94.9877 333.00
95.0529 339.00
95.1181 330.00
95.1833 405.00
95.2485 369.00
95.3137 365.00
95.3789 376.00
95.444 420.00
95.5092 425.00
95.5744 473.00
95.6396 529.00
95.7048 489.00
95.77 582.00
95.8352 602.00
95.9004 568.00
95.9656 541.00
96.0308 603.00
96.096 638.00
96.1612 644.00
96.2264 740.00
96.2916 672.00
96.3568 581.00
96.422 557.00
96.4872 567.00
96.5524 566.00
96.6176 577.00
96.6828 515.00
96.748 513.00
96.8132 514.00
96.8784 538.00
96.9436 484.00
97.0088 460.00
97.074 466.00
97.1392 473.00
97.2044 473.00
97.2696 453.00
97.3348 444.00
97.4 419.00
97.4652 394.00
97.5304 389.00
97.5956 350.00
97.6608 331.00
97.726 369.00
97.7912 331.00
97.8564 348.00
97.9216 329.00
97.9868 319.00
98.052 336.00
98.1172 326.00
98.1824 304.00
98.2476 292.00
98.3128 285.00
98.378 309.00
98.4432 327.00
98.5084 265.00
98.5736 327.00
98.6388 314.00
98.704 303.00
98.7692 311.00
98.8344 313.00
98.8996 299.00
98.9648 297.00
99.03 320.00
99.0952 341.00
99.1604 325.00
99.2256 352.00
99.2908 307.00
99.356 260.00
99.4212 322.00
99.4864 323.00
99.5516 322.00
99.6168 292.00
99.682 297.00
99.7472 327.00
99.8124 290.00
99.8776 305.00
99.9428 265.00
100.008 284.00
100.073 296.00
100.095 281.00