File: data/xrd_creation/results/PG_2552-1.xy
9.903433 2760.00
9.968632 2737.00
10.0338 2677.00
10.099 2696.00
10.1642 2584.00
10.2294 2645.00
10.2946 2586.00
10.3598 2493.00
10.425 2490.00
10.4902 2546.00
10.5554 2446.00
10.6206 2466.00
10.6858 2461.00
10.751 2416.00
10.8162 2428.00
10.8814 2443.00
10.9466 2480.00
11.0118 2384.00
11.077 2459.00
11.1422 2401.00
11.2074 2375.00
11.2726 2323.00
11.3378 2376.00
11.403 2364.00
11.4682 2406.00
11.5334 2289.00
11.5986 2283.00
11.6638 2245.00
11.729 2342.00
11.7942 2300.00
11.8594 2197.00
11.9246 2218.00
11.9898 2211.00
12.055 2228.00
12.1202 2163.00
12.1854 2208.00
12.2506 2103.00
12.3158 2148.00
12.381 2162.00
12.4462 2156.00
12.5114 2240.00
12.5766 2144.00
12.6418 2068.00
12.707 2153.00
12.7722 2162.00
12.8374 2153.00
12.9026 2084.00
12.9678 2142.00
13.033 2134.00
13.0982 2102.00
13.1634 2227.00
13.2286 2081.00
13.2938 2083.00
13.359 1926.00
13.4242 2065.00
13.4894 2144.00
13.5546 1938.00
13.6198 2093.00
13.685 2134.00
13.7502 1968.00
13.8154 2086.00
13.8805 2030.00
13.9457 2008.00
14.0109 1920.00
14.0761 1944.00
14.1413 2083.00
14.2065 2067.00
14.2717 1998.00
14.3369 2114.00
14.4021 1917.00
14.4673 2032.00
14.5325 2037.00
14.5977 2003.00
14.6629 2046.00
14.7281 2019.00
14.7933 1905.00
14.8585 1968.00
14.9237 1979.00
14.9889 2005.00
15.0541 1925.00
15.1193 1963.00
15.1845 1934.00
15.2497 1854.00
15.3149 1959.00
15.3801 1953.00
15.4453 2024.00
15.5105 2006.00
15.5757 2009.00
15.6409 1879.00
15.7061 1915.00
15.7713 1863.00
15.8365 2002.00
15.9017 1961.00
15.9669 1876.00
16.0321 1978.00
16.0973 1955.00
16.1625 1918.00
16.2277 1949.00
16.2929 1860.00
16.3581 1905.00
16.4233 1888.00
16.4885 1871.00
16.5537 1872.00
16.6189 1879.00
16.6841 1900.00
16.7493 1870.00
16.8145 1887.00
16.8797 1822.00
16.9449 1907.00
17.0101 1921.00
17.0753 1866.00
17.1405 1899.00
17.2057 1958.00
17.2709 1853.00
17.3361 2002.00
17.4013 2039.00
17.4665 2093.00
17.5317 2214.00
17.5969 2142.00
17.6621 2088.00
17.7273 2116.00
17.7925 1994.00
17.8577 1938.00
17.9229 1867.00
17.9881 1831.00
18.0533 1800.00
18.1185 1794.00
18.1837 1873.00
18.2489 1869.00
18.3141 1746.00
18.3793 1733.00
18.4445 1829.00
18.5097 1860.00
18.5749 1782.00
18.6401 1803.00
18.7052 1691.00
18.7704 1807.00
18.8356 1755.00
18.9008 1805.00
18.966 1775.00
19.0312 1760.00
19.0964 1753.00
19.1616 1745.00
19.2268 1807.00
19.292 1817.00
19.3572 1763.00
19.4224 1801.00
19.4876 1783.00
19.5528 1761.00
19.618 1780.00
19.6832 1754.00
19.7484 1765.00
19.8136 1743.00
19.8788 1733.00
19.944 1767.00
20.0092 1761.00
20.0744 1753.00
20.1396 1705.00
20.2048 1740.00
20.27 1680.00
20.3352 1652.00
20.4004 1656.00
20.4656 1761.00
20.5308 1690.00
20.596 1602.00
20.6612 1645.00
20.7264 1733.00
20.7916 1707.00
20.8568 1664.00
20.922 1635.00
20.9872 1652.00
21.0524 1701.00
21.1176 1668.00
21.1828 1621.00
21.248 1671.00
21.3132 1675.00
21.3784 1677.00
21.4436 1560.00
21.5088 1660.00
21.574 1631.00
21.6392 1676.00
21.7044 1667.00
21.7696 1692.00
21.8348 1738.00
21.9 1598.00
21.9652 1715.00
22.0304 1679.00
22.0956 1627.00
22.1608 1680.00
22.226 1673.00
22.2912 1669.00
22.3564 1682.00
22.4216 1679.00
22.4868 1747.00
22.552 1716.00
22.6172 1608.00
22.6824 1626.00
22.7476 1627.00
22.8128 1595.00
22.878 1690.00
22.9432 1727.00
23.0084 1557.00
23.0736 1736.00
23.1388 1595.00
23.204 1567.00
23.2692 1547.00
23.3344 1624.00
23.3996 1610.00
23.4647 1680.00
23.5299 1630.00
23.5951 1592.00
23.6603 1648.00
23.7255 1759.00
23.7907 1680.00
23.8559 1763.00
23.9211 1797.00
23.9863 1928.00
24.0515 2101.00
24.1167 2341.00
24.1819 2782.00
24.2471 2971.00
24.3123 3094.00
24.3775 2886.00
24.4427 2463.00
24.5079 2293.00
24.5731 2416.00
24.6383 2447.00
24.7035 2624.00
24.7687 2571.00
24.8339 2104.00
24.8991 1789.00
24.9643 1814.00
25.0295 1667.00
25.0947 1679.00
25.1599 1640.00
25.2251 1588.00
25.2903 1630.00
25.3555 1563.00
25.4207 1649.00
25.4859 1555.00
25.5511 1557.00
25.6163 1580.00
25.6815 1622.00
25.7467 1593.00
25.8119 1532.00
25.8771 1649.00
25.9423 1603.00
26.0075 1539.00
26.0727 1590.00
26.1379 1583.00
26.2031 1602.00
26.2683 1545.00
26.3335 1532.00
26.3987 1590.00
26.4639 1542.00
26.5291 1572.00
26.5943 1620.00
26.6595 1573.00
26.7247 1517.00
26.7899 1561.00
26.8551 1576.00
26.9203 1521.00
26.9855 1491.00
27.0507 1579.00
27.1159 1559.00
27.1811 1507.00
27.2463 1644.00
27.3115 1600.00
27.3767 1607.00
27.4419 1633.00
27.5071 1660.00
27.5723 1712.00
27.6375 1641.00
27.7027 1678.00
27.7679 1756.00
27.8331 1753.00
27.8983 1766.00
27.9635 2067.00
28.0287 2497.00
28.0939 3191.00
28.1591 4386.00
28.2243 5745.00
28.2894 7964.00
28.3546 9723.00
28.4198 11091.00
28.485 9953.00
28.5502 6668.00
28.6154 3768.00
28.6806 2499.00
28.7458 2018.00
28.811 1918.00
28.8762 1839.00
28.9414 1758.00
29.0066 1770.00
29.0718 1605.00
29.137 1630.00
29.2022 1676.00
29.2674 1555.00
29.3326 1635.00
29.3978 1528.00
29.463 1586.00
29.5282 1626.00
29.5934 1608.00
29.6586 1538.00
29.7238 1524.00
29.789 1561.00
29.8542 1549.00
29.9194 1527.00
29.9846 1517.00
30.0498 1464.00
30.115 1431.00
30.1802 1474.00
30.2454 1544.00
30.3106 1541.00
30.3758 1571.00
30.441 1467.00
30.5062 1529.00
30.5714 1580.00
30.6366 1539.00
30.7018 1538.00
30.767 1598.00
30.8322 1600.00
30.8974 1643.00
30.9626 1522.00
31.0278 1617.00
31.093 1659.00
31.1582 1780.00
31.2234 1845.00
31.2886 2091.00
31.3538 2526.00
31.419 3172.00
31.4842 4286.00
31.5494 5745.00
31.6146 7082.00
31.6798 8184.00
31.745 7916.00
31.8102 5829.00
31.8754 3610.00
31.9406 2395.00
32.0058 1852.00
32.071 1706.00
32.1362 1655.00
32.2014 1511.00
32.2666 1533.00
32.3318 1485.00
32.397 1522.00
32.4622 1535.00
32.5274 1514.00
32.5926 1431.00
32.6578 1387.00
32.723 1454.00
32.7882 1434.00
32.8534 1412.00
32.9186 1430.00
32.9838 1434.00
33.0489 1412.00
33.1141 1427.00
33.1793 1427.00
33.2445 1412.00
33.3097 1455.00
33.3749 1437.00
33.4401 1470.00
33.5053 1396.00
33.5705 1423.00
33.6357 1451.00
33.7009 1432.00
33.7661 1483.00
33.8313 1473.00
33.8965 1488.00
33.9617 1664.00
34.0269 1742.00
34.0921 2025.00
34.1573 2389.00
34.2225 2846.00
34.2877 3226.00
34.3529 3692.00
34.4181 3551.00
34.4833 3212.00
34.5485 3025.00
34.6137 2871.00
34.6789 2831.00
34.7441 2441.00
34.8093 2160.00
34.8745 1732.00
34.9397 1679.00
35.0049 1517.00
35.0701 1602.00
35.1353 1557.00
35.2005 1578.00
35.2657 1887.00
35.3309 2063.00
35.3961 2437.00
35.4613 2732.00
35.5265 3012.00
35.5917 2693.00
35.6569 2329.00
35.7221 1857.00
35.7873 1633.00
35.8525 1606.00
35.9177 1510.00
35.9829 1609.00
36.0481 1662.00
36.1133 1723.00
36.1785 1599.00
36.2437 1497.00
36.3089 1425.00
36.3741 1375.00
36.4393 1417.00
36.5045 1418.00
36.5697 1431.00
36.6349 1391.00
36.7001 1385.00
36.7653 1362.00
36.8305 1427.00
36.8957 1328.00
36.9609 1419.00
37.0261 1511.00
37.0913 1522.00
37.1565 1567.00
37.2217 1504.00
37.2869 1413.00
37.3521 1456.00
37.4173 1273.00
37.4825 1301.00
37.5477 1329.00
37.6129 1360.00
37.6781 1328.00
37.7433 1316.00
37.8085 1292.00
37.8736 1301.00
37.9388 1307.00
38.004 1229.00
38.0692 1308.00
38.1344 1357.00
38.1996 1373.00
38.2648 1291.00
38.33 1407.00
38.3952 1369.00
38.4604 1324.00
38.5256 1439.00
38.5908 1536.00
38.656 1664.00
38.7212 1763.00
38.7864 1950.00
38.8516 1872.00
38.9168 1721.00
38.982 1605.00
39.0472 1475.00
39.1124 1399.00
39.1776 1335.00
39.2428 1285.00
39.308 1323.00
39.3732 1312.00
39.4384 1317.00
39.5036 1346.00
39.5688 1448.00
39.634 1411.00
39.6992 1410.00
39.7644 1461.00
39.8296 1357.00
39.8948 1302.00
39.96 1281.00
40.0252 1342.00
40.0904 1265.00
40.1556 1367.00
40.2208 1411.00
40.286 1356.00
40.3512 1309.00
40.4164 1383.00
40.4816 1313.00
40.5468 1396.00
40.612 1537.00
40.6772 1695.00
40.7424 1795.00
40.8076 2163.00
40.8728 2526.00
40.938 2754.00
41.0032 2922.00
41.0684 2549.00
41.1336 2186.00
41.1988 1952.00
41.264 1963.00
41.3292 1859.00
41.3944 2014.00
41.4596 1977.00
41.5248 1898.00
41.59 1923.00
41.6552 1917.00
41.7204 1656.00
41.7856 1638.00
41.8508 1513.00
41.916 1341.00
41.9812 1330.00
42.0464 1377.00
42.1116 1358.00
42.1768 1322.00
42.242 1345.00
42.3072 1250.00
42.3724 1217.00
42.4376 1260.00
42.5028 1365.00
42.568 1321.00
42.6332 1387.00
42.6983 1321.00
42.7635 1398.00
42.8287 1602.00
42.8939 1965.00
42.9591 2527.00
43.0243 3335.00
43.0895 3905.00
43.1547 4292.00
43.2199 3673.00
43.2851 2546.00
43.3503 1855.00
43.4155 1531.00
43.4807 1437.00
43.5459 1350.00
43.6111 1321.00
43.6763 1287.00
43.7415 1327.00
43.8067 1316.00
43.8719 1268.00
43.9371 1281.00
44.0023 1370.00
44.0675 1310.00
44.1327 1278.00
44.1979 1347.00
44.2631 1298.00
44.3283 1369.00
44.3935 1278.00
44.4587 1261.00
44.5239 1314.00
44.5891 1314.00
44.6543 1312.00
44.7195 1435.00
44.7847 1499.00
44.8499 1611.00
44.9151 1841.00
44.9803 1832.00
45.0455 2084.00
45.1107 1984.00
45.1759 1755.00
45.2411 1556.00
45.3063 1503.00
45.3715 1313.00
45.4367 1465.00
45.5019 1597.00
45.5671 1686.00
45.6323 1833.00
45.6975 1914.00
45.7627 1993.00
45.8279 1873.00
45.8931 1754.00
45.9583 1587.00
46.0235 1392.00
46.0887 1364.00
46.1539 1318.00
46.2191 1230.00
46.2843 1253.00
46.3495 1250.00
46.4147 1219.00
46.4799 1256.00
46.5451 1256.00
46.6103 1225.00
46.6755 1254.00
46.7407 1284.00
46.8059 1161.00
46.8711 1269.00
46.9363 1302.00
47.0015 1173.00
47.0667 1194.00
47.1319 1295.00
47.1971 1325.00
47.2623 1255.00
47.3275 1310.00
47.3927 1203.00
47.4579 1247.00
47.523 1208.00
47.5882 1197.00
47.6534 1250.00
47.7186 1295.00
47.7838 1258.00
47.849 1306.00
47.9142 1212.00
47.9794 1282.00
48.0446 1242.00
48.1098 1179.00
48.175 1298.00
48.2402 1163.00
48.3054 1202.00
48.3706 1194.00
48.4358 1261.00
48.501 1256.00
48.5662 1269.00
48.6314 1306.00
48.6966 1240.00
48.7618 1288.00
48.827 1288.00
48.8922 1355.00
48.9574 1465.00
49.0226 1528.00
49.0878 1559.00
49.153 1792.00
49.2182 2013.00
49.2834 2187.00
49.3486 2760.00
49.4138 3215.00
49.479 3516.00
49.5442 3379.00
49.6094 2733.00
49.6746 2162.00
49.7398 1790.00
49.805 1476.00
49.8702 1501.00
49.9354 1460.00
50.0006 1652.00
50.0658 1753.00
50.131 2142.00
50.1962 2759.00
50.2614 3440.00
50.3266 4180.00
50.3918 4193.00
50.457 3676.00
50.5222 3076.00
50.5874 2628.00
50.6526 2636.00
50.7178 2756.00
50.783 2915.00
50.8482 2753.00
50.9134 2357.00
50.9786 2001.00
51.0438 1668.00
51.109 1555.00
51.1742 1551.00
51.2394 1556.00
51.3046 1649.00
51.3698 1913.00
51.435 1918.00
51.5002 1867.00
51.5654 1779.00
51.6306 1508.00
51.6958 1287.00
51.761 1289.00
51.8262 1328.00
51.8914 1336.00
51.9566 1221.00
52.0218 1253.00
52.087 1249.00
52.1522 1294.00
52.2174 1222.00
52.2826 1233.00
52.3477 1208.00
52.4129 1204.00
52.4781 1276.00
52.5433 1241.00
52.6085 1284.00
52.6737 1260.00
52.7389 1178.00
52.8041 1152.00
52.8693 1228.00
52.9345 1253.00
52.9997 1232.00
53.0649 1223.00
53.1301 1210.00
53.1953 1251.00
53.2605 1181.00
53.3257 1236.00
53.3909 1170.00
53.4561 1282.00
53.5213 1332.00
53.5865 1294.00
53.6517 1248.00
53.7169 1216.00
53.7821 1330.00
53.8473 1313.00
53.9125 1463.00
53.9777 1600.00
54.0429 1827.00
54.1081 2088.00
54.1733 2344.00
54.2385 2538.00
54.3037 2585.00
54.3689 2524.00
54.4341 2103.00
54.4993 1783.00
54.5645 1541.00
54.6297 1412.00
54.6949 1292.00
54.7601 1416.00
54.8253 1296.00
54.8905 1346.00
54.9557 1330.00
55.0209 1460.00
55.0861 1371.00
55.1513 1477.00
55.2165 1542.00
55.2817 1792.00
55.3469 2050.00
55.4121 2259.00
55.4773 2771.00
55.5425 2941.00
55.6077 2979.00
55.6729 2827.00
55.7381 2682.00
55.8033 2528.00
55.8685 2436.00
55.9337 2205.00
55.9989 2153.00
56.0641 2246.00
56.1293 2248.00
56.1945 2283.00
56.2597 1986.00
56.3249 1817.00
56.3901 1591.00
56.4553 1441.00
56.5205 1328.00
56.5857 1361.00
56.6509 1333.00
56.7161 1303.00
56.7813 1257.00
56.8465 1243.00
56.9117 1335.00
56.9769 1307.00
57.042 1418.00
57.1073 1473.00
57.1724 1642.00
57.2376 1827.00
57.3028 2125.00
57.368 2303.00
57.4332 2189.00
57.4984 2011.00
57.5636 1846.00
57.6288 1626.00
57.694 1461.00
57.7592 1416.00
57.8244 1356.00
57.8896 1524.00
57.9548 1557.00
58.02 1704.00
58.0852 1866.00
58.1504 1799.00
58.2156 1810.00
58.2808 1720.00
58.346 1778.00
58.4112 1698.00
58.4764 1778.00
58.5416 1750.00
58.6068 1587.00
58.672 1487.00
58.7372 1377.00
58.8024 1399.00
58.8676 1226.00
58.9328 1306.00
58.998 1250.00
59.0632 1183.00
59.1284 1197.00
59.1936 1309.00
59.2588 1203.00
59.324 1267.00
59.3892 1231.00
59.4544 1268.00
59.5196 1217.00
59.5848 1276.00
59.65 1365.00
59.7152 1466.00
59.7804 1582.00
59.8456 1873.00
59.9108 2073.00
59.976 2384.00
60.0412 2631.00
60.1064 2700.00
60.1716 2704.00
60.2368 2631.00
60.302 2398.00
60.3672 2120.00
60.4324 1866.00
60.4976 1670.00
60.5628 1450.00
60.628 1297.00
60.6932 1350.00
60.7584 1261.00
60.8236 1253.00
60.8888 1372.00
60.954 1289.00
61.0192 1253.00
61.0844 1314.00
61.1496 1436.00
61.2148 1441.00
61.28 1538.00
61.3452 1580.00
61.4104 1782.00
61.4756 1868.00
61.5408 1890.00
61.606 1842.00
61.6712 1723.00
61.7364 1724.00
61.8016 1562.00
61.8667 1646.00
61.932 1695.00
61.9971 1748.00
62.0623 1905.00
62.1275 2094.00
62.1927 2172.00
62.2579 2221.00
62.3231 2349.00
62.3883 2652.00
62.4535 2930.00
62.5187 3009.00
62.5839 2698.00
62.6491 2273.00
62.7143 2202.00
62.7795 1913.00
62.8447 1966.00
62.9099 2206.00
62.9751 2252.00
63.0403 2570.00
63.1055 2384.00
63.1707 2064.00
63.2359 1829.00
63.3011 1652.00
63.3663 1375.00
63.4315 1332.00
63.4967 1318.00
63.5619 1304.00
63.6271 1197.00
63.6923 1219.00
63.7575 1195.00
63.8227 1136.00
63.8879 1248.00
63.9531 1156.00
64.0183 1271.00
64.0835 1276.00
64.1487 1453.00
64.2139 1404.00
64.2791 1478.00
64.3443 1531.00
64.4095 1569.00
64.4747 1580.00
64.5399 1481.00
64.6051 1410.00
64.6703 1340.00
64.7355 1320.00
64.8007 1263.00
64.8659 1188.00
64.9311 1211.00
64.9963 1285.00
65.0615 1225.00
65.1267 1298.00
65.1919 1328.00
65.2571 1296.00
65.3223 1339.00
65.3875 1308.00
65.4527 1480.00
65.5179 1568.00
65.5831 1666.00
65.6483 1721.00
65.7135 1844.00
65.7787 1913.00
65.8439 2135.00
65.9091 2162.00
65.9743 2000.00
66.0395 1906.00
66.1047 1762.00
66.1699 1597.00
66.2351 1473.00
66.3003 1363.00
66.3655 1351.00
66.4307 1253.00
66.4959 1282.00
66.561 1262.00
66.6263 1161.00
66.6915 1123.00
66.7566 1144.00
66.8218 1124.00
66.887 1207.00
66.9522 1206.00
67.0174 1150.00
67.0826 1137.00
67.1478 1162.00
67.213 1212.00
67.2782 1148.00
67.3434 1184.00
67.4086 1179.00
67.4738 1248.00
67.539 1164.00
67.6042 1180.00
67.6694 1163.00
67.7346 1206.00
67.7998 1066.00
67.865 1128.00
67.9302 1157.00
67.9954 1137.00
68.0606 1133.00
68.1258 1129.00
68.191 1128.00
68.2562 1136.00
68.3214 1180.00
68.3866 1204.00
68.4518 1140.00
68.517 1201.00
68.5822 1081.00
68.6474 1152.00
68.7126 1162.00
68.7778 1169.00
68.843 1265.00
68.9082 1217.00
68.9734 1273.00
69.0386 1311.00
69.1038 1415.00
69.169 1377.00
69.2342 1419.00
69.2994 1363.00
69.3646 1406.00
69.4298 1371.00
69.495 1209.00
69.5602 1242.00
69.6254 1327.00
69.6906 1254.00
69.7558 1236.00
69.821 1257.00
69.8862 1309.00
69.9514 1218.00
70.0166 1178.00
70.0818 1145.00
70.147 1280.00
70.2122 1154.00
70.2774 1203.00
70.3426 1234.00
70.4078 1230.00
70.473 1188.00
70.5382 1230.00
70.6034 1185.00
70.6686 1194.00
70.7338 1268.00
70.799 1386.00
70.8642 1233.00
70.9294 1264.00
70.9946 1262.00
71.0598 1398.00
71.125 1404.00
71.1902 1593.00
71.2554 1681.00
71.3205 1737.00
71.3858 1756.00
71.451 1779.00
71.5162 1656.00
71.5813 1607.00
71.6465 1487.00
71.7117 1386.00
71.7769 1327.00
71.8421 1276.00
71.9073 1270.00
71.9725 1258.00
72.0377 1287.00
72.1029 1393.00
72.1681 1416.00
72.2333 1369.00
72.2985 1453.00
72.3637 1422.00
72.4289 1309.00
72.4941 1356.00
72.5593 1437.00
72.6245 1440.00
72.6897 1411.00
72.7549 1381.00
72.8201 1378.00
72.8853 1312.00
72.9505 1281.00
73.0157 1273.00
73.0809 1279.00
73.1461 1289.00
73.2113 1252.00
73.2765 1188.00
73.3417 1151.00
73.4069 1096.00
73.4721 1182.00
73.5373 1188.00
73.6025 1190.00
73.6677 1182.00
73.7329 1225.00
73.7981 1206.00
73.8633 1188.00
73.9285 1226.00
73.9937 1202.00
74.0589 1177.00
74.1241 1092.00
74.1893 1111.00
74.2545 1203.00
74.3197 1205.00
74.3849 1221.00
74.4501 1233.00
74.5153 1216.00
74.5805 1259.00
74.6457 1406.00
74.7109 1477.00
74.7761 1538.00
74.8413 1568.00
74.9065 1622.00
74.9717 1595.00
75.0369 1552.00
75.1021 1576.00
75.1673 1612.00
75.2325 1690.00
75.2977 1757.00
75.3629 1630.00
75.4281 1655.00
75.4933 1576.00
75.5585 1488.00
75.6237 1424.00
75.6889 1377.00
75.7541 1236.00
75.8193 1327.00
75.8845 1247.00
75.9497 1263.00
76.0149 1212.00
76.0801 1169.00
76.1452 1192.00
76.2104 1173.00
76.2756 1216.00
76.3409 1248.00
76.406 1293.00
76.4712 1326.00
76.5364 1323.00
76.6016 1384.00
76.6668 1427.00
76.732 1440.00
76.7972 1359.00
76.8624 1285.00
76.9276 1294.00
76.9928 1283.00
77.058 1173.00
77.1232 1262.00
77.1884 1228.00
77.2536 1151.00
77.3188 1263.00
77.384 1274.00
77.4492 1337.00
77.5144 1349.00
77.5796 1343.00
77.6448 1344.00
77.71 1253.00
77.7752 1327.00
77.8404 1281.00
77.9056 1236.00
77.9708 1301.00
78.036 1227.00
78.1012 1296.00
78.1664 1280.00
78.2316 1329.00
78.2968 1328.00
78.362 1342.00
78.4272 1347.00
78.4924 1293.00
78.5576 1354.00
78.6228 1443.00
78.688 1510.00
78.7532 1633.00
78.8184 1785.00
78.8836 1622.00
78.9488 1636.00
79.014 1646.00
79.0792 1723.00
79.1444 1548.00
79.2096 1527.00
79.2748 1425.00
79.34 1318.00
79.4052 1369.00
79.4704 1207.00
79.5356 1196.00
79.6008 1143.00
79.666 1204.00
79.7312 1210.00
79.7964 1194.00
79.8616 1188.00
79.9268 1155.00
79.992 1129.00
80.0572 1133.00
80.1224 1239.00
80.1876 1124.00
80.2528 1108.00
80.318 1139.00
80.3832 1124.00
80.4484 1205.00
80.5136 1210.00
80.5788 1208.00
80.644 1196.00
80.7092 1244.00
80.7744 1170.00
80.8396 1074.00
80.9048 1101.00
80.9699 1132.00
81.0351 1173.00
81.1003 1112.00
81.1655 1188.00
81.2307 1185.00
81.2959 1180.00
81.3611 1266.00
81.4263 1314.00
81.4915 1321.00
81.5567 1325.00
81.6219 1378.00
81.6871 1409.00
81.7523 1346.00
81.8175 1402.00
81.8827 1281.00
81.9479 1299.00
82.0131 1362.00
82.0783 1265.00
82.1435 1288.00
82.2087 1210.00
82.2739 1236.00
82.3391 1209.00
82.4043 1241.00
82.4695 1230.00
82.5347 1417.00
82.5999 1340.00
82.6651 1371.00
82.7303 1457.00
82.7955 1441.00
82.8607 1397.00
82.9259 1396.00
82.9911 1388.00
83.0563 1368.00
83.1215 1452.00
83.1867 1512.00
83.2519 1613.00
83.3171 1582.00
83.3823 1471.00
83.4475 1500.00
83.5127 1445.00
83.5779 1384.00
83.6431 1338.00
83.7083 1410.00
83.7735 1419.00
83.8387 1334.00
83.9039 1420.00
83.9691 1488.00
84.0343 1567.00
84.0995 1484.00
84.1647 1592.00
84.2299 1506.00
84.2951 1525.00
84.3603 1455.00
84.4255 1369.00
84.4907 1403.00
84.5559 1409.00
84.6211 1346.00
84.6863 1290.00
84.7515 1296.00
84.8167 1306.00
84.8819 1310.00
84.9471 1384.00
85.0123 1411.00
85.0775 1339.00
85.1427 1338.00
85.2079 1229.00
85.2731 1308.00
85.3383 1167.00
85.4035 1140.00
85.4687 1181.00
85.5339 1131.00
85.5991 1124.00
85.6643 1189.00
85.7295 1184.00
85.7946 1149.00
85.8598 1226.00
85.925 1134.00
85.9903 1142.00
86.0554 1217.00
86.1206 1194.00
86.1858 1263.00
86.251 1320.00
86.3162 1292.00
86.3814 1307.00
86.4466 1274.00
86.5118 1275.00
86.577 1291.00
86.6422 1217.00
86.7074 1210.00
86.7726 1179.00
86.8378 1117.00
86.903 1124.00
86.9682 1198.00
87.0334 1178.00
87.0986 1221.00
87.1638 1241.00
87.229 1240.00
87.2942 1267.00
87.3594 1229.00
87.4246 1282.00
87.4898 1325.00
87.555 1375.00
87.6202 1403.00
87.6854 1399.00
87.7506 1387.00
87.8158 1486.00
87.881 1401.00
87.9462 1365.00
88.0114 1440.00
88.0766 1424.00
88.1418 1410.00
88.207 1515.00
88.2722 1511.00
88.3374 1592.00
88.4026 1515.00
88.4678 1587.00
88.533 1582.00
88.5982 1558.00
88.6634 1588.00
88.7286 1562.00
88.7938 1502.00
88.859 1388.00
88.9242 1364.00
88.9894 1440.00
89.0546 1235.00
89.1198 1274.00
89.185 1319.00
89.2502 1314.00
89.3154 1213.00
89.3806 1264.00
89.4458 1254.00
89.511 1340.00
89.5762 1388.00
89.6414 1345.00
89.7066 1361.00
89.7718 1383.00
89.837 1390.00
89.9022 1491.00
89.9674 1460.00
90.0326 1603.00
90.0978 1423.00
90.163 1422.00
90.2282 1359.00
90.2934 1427.00
90.3586 1389.00
90.4238 1281.00
90.489 1223.00
90.5542 1215.00
90.6193 1338.00
90.6845 1276.00
90.7497 1203.00
90.8149 1192.00
90.8801 1297.00
90.9453 1231.00
91.0105 1227.00
91.0757 1247.00
91.1409 1247.00
91.2061 1221.00
91.2713 1299.00
91.3365 1225.00
91.4017 1233.00
91.4669 1263.00
91.5321 1302.00
91.5973 1251.00
91.6625 1241.00
91.7277 1154.00
91.7929 1261.00
91.8581 1158.00
91.9233 1164.00
91.9885 1081.00
92.0537 1133.00
92.1189 1174.00
92.1841 1184.00
92.2493 1210.00
92.3145 1178.00
92.3797 1152.00
92.4449 1131.00
92.5101 1153.00
92.5753 1136.00
92.6405 1140.00
92.7057 1048.00
92.7709 1141.00
92.8361 1196.00
92.9013 1078.00
92.9665 1210.00
93.0317 1156.00
93.0969 1254.00
93.1621 1223.00
93.2273 1161.00
93.2925 1151.00
93.3577 1198.00
93.4229 1231.00
93.4881 1214.00
93.5533 1124.00
93.6185 1199.00
93.6837 1194.00
93.7489 1298.00
93.8141 1449.00
93.8793 1393.00
93.9445 1442.00
94.0097 1415.00
94.0749 1370.00
94.1401 1481.00
94.2053 1463.00
94.2705 1402.00
94.3357 1424.00
94.4009 1339.00
94.4661 1354.00
94.5313 1272.00
94.5965 1275.00
94.6617 1198.00
94.7269 1233.00
94.7921 1314.00
94.8573 1304.00
94.9225 1311.00
94.9877 1367.00
95.0529 1269.00
95.1181 1381.00
95.1833 1405.00
95.2485 1471.00
95.3137 1461.00
95.3789 1500.00
95.444 1400.00
95.5092 1416.00
95.5744 1292.00
95.6396 1381.00
95.7048 1290.00
95.77 1313.00
95.8352 1280.00
95.9004 1287.00
95.9656 1385.00
96.0308 1266.00
96.096 1330.00
96.1612 1342.00
96.2264 1426.00
96.2916 1471.00
96.3568 1487.00
96.422 1515.00
96.4872 1546.00
96.5524 1657.00
96.6176 1746.00
96.6828 1718.00
96.748 1659.00
96.8132 1664.00
96.8784 1594.00
96.9436 1694.00
97.0088 1694.00
97.074 1627.00
97.1392 1645.00
97.2044 1588.00
97.2696 1491.00
97.3348 1375.00
97.4 1381.00
97.4652 1306.00
97.5304 1319.00
97.5956 1327.00
97.6608 1272.00
97.726 1234.00
97.7912 1268.00
97.8564 1180.00
97.9216 1223.00
97.9868 1269.00
98.052 1259.00
98.1172 1333.00
98.1824 1447.00
98.2476 1313.00
98.3128 1297.00
98.378 1402.00
98.4432 1320.00
98.5084 1318.00
98.5736 1314.00
98.6388 1403.00
98.704 1368.00
98.7692 1444.00
98.8344 1499.00
98.8996 1426.00
98.9648 1438.00
99.03 1496.00
99.0952 1512.00
99.1604 1543.00
99.2256 1426.00
99.2908 1448.00
99.356 1476.00
99.4212 1510.00
99.4864 1564.00
99.5516 1536.00
99.6168 1567.00
99.682 1431.00
99.7472 1402.00
99.8124 1501.00
99.8776 1428.00
99.9428 1407.00
100.008 1385.00
100.073 1340.00
100.095 1392.00