File: data/xrd_creation/results/PG_2643-1.xy
9.903433 4260.00
9.968632 4265.00
10.0338 4171.00
10.099 4268.00
10.1642 4184.00
10.2294 4197.00
10.2946 4207.00
10.3598 4124.00
10.425 4236.00
10.4902 4138.00
10.5554 4182.00
10.6206 4047.00
10.6858 4063.00
10.751 4164.00
10.8162 4110.00
10.8814 4181.00
10.9466 4035.00
11.0118 4029.00
11.077 3894.00
11.1422 4151.00
11.2074 4062.00
11.2726 3959.00
11.3378 4052.00
11.403 4021.00
11.4682 4059.00
11.5334 3978.00
11.5986 4027.00
11.6638 3948.00
11.729 4023.00
11.7942 3981.00
11.8594 3936.00
11.9246 3869.00
11.9898 3980.00
12.055 3951.00
12.1202 3927.00
12.1854 3963.00
12.2506 3898.00
12.3158 3921.00
12.381 3856.00
12.4462 3919.00
12.5114 3895.00
12.5766 3832.00
12.6418 3885.00
12.707 3945.00
12.7722 3786.00
12.8374 3966.00
12.9026 3754.00
12.9678 3860.00
13.033 3882.00
13.0982 3823.00
13.1634 3866.00
13.2286 3839.00
13.2938 3830.00
13.359 3969.00
13.4242 3806.00
13.4894 3828.00
13.5546 3912.00
13.6198 3893.00
13.685 3783.00
13.7502 3879.00
13.8154 3730.00
13.8805 3846.00
13.9457 3845.00
14.0109 3693.00
14.0761 3811.00
14.1413 3795.00
14.2065 3806.00
14.2717 3809.00
14.3369 3819.00
14.4021 3860.00
14.4673 3824.00
14.5325 3688.00
14.5977 3784.00
14.6629 3811.00
14.7281 3767.00
14.7933 3751.00
14.8585 3799.00
14.9237 3731.00
14.9889 3848.00
15.0541 3783.00
15.1193 3867.00
15.1845 3768.00
15.2497 3837.00
15.3149 3789.00
15.3801 3843.00
15.4453 3753.00
15.5105 3678.00
15.5757 3853.00
15.6409 3841.00
15.7061 3792.00
15.7713 3751.00
15.8365 3888.00
15.9017 3767.00
15.9669 3856.00
16.0321 3840.00
16.0973 3747.00
16.1625 3813.00
16.2277 3678.00
16.2929 3803.00
16.3581 3830.00
16.4233 3823.00
16.4885 3787.00
16.5537 3862.00
16.6189 3921.00
16.6841 3765.00
16.7493 3793.00
16.8145 3862.00
16.8797 3843.00
16.9449 3696.00
17.0101 3849.00
17.0753 3877.00
17.1405 3731.00
17.2057 3810.00
17.2709 3753.00
17.3361 3782.00
17.4013 3665.00
17.4665 3714.00
17.5317 3769.00
17.5969 3798.00
17.6621 3706.00
17.7273 3760.00
17.7925 3689.00
17.8577 3770.00
17.9229 3782.00
17.9881 3704.00
18.0533 3852.00
18.1185 3657.00
18.1837 3707.00
18.2489 3558.00
18.3141 3750.00
18.3793 3786.00
18.4445 3680.00
18.5097 3633.00
18.5749 3737.00
18.6401 3734.00
18.7052 3799.00
18.7704 3712.00
18.8356 3813.00
18.9008 3734.00
18.966 3760.00
19.0312 3938.00
19.0964 3889.00
19.1616 4073.00
19.2268 3833.00
19.292 3700.00
19.3572 3757.00
19.4224 3731.00
19.4876 3653.00
19.5528 3708.00
19.618 3717.00
19.6832 3742.00
19.7484 3740.00
19.8136 3854.00
19.8788 3904.00
19.944 3747.00
20.0092 3841.00
20.0744 3730.00
20.1396 3751.00
20.2048 3841.00
20.27 3704.00
20.3352 3792.00
20.4004 3743.00
20.4656 3663.00
20.5308 3812.00
20.596 3712.00
20.6612 3786.00
20.7264 3814.00
20.7916 3630.00
20.8568 3672.00
20.922 3811.00
20.9872 3690.00
21.0524 3756.00
21.1176 3674.00
21.1828 3747.00
21.248 3727.00
21.3132 3709.00
21.3784 3668.00
21.4436 3732.00
21.5088 3706.00
21.574 3784.00
21.6392 3806.00
21.7044 3674.00
21.7696 3687.00
21.8348 3684.00
21.9 3757.00
21.9652 3753.00
22.0304 3718.00
22.0956 3778.00
22.1608 3813.00
22.226 3720.00
22.2912 3671.00
22.3564 3694.00
22.4216 3605.00
22.4868 3632.00
22.552 3641.00
22.6172 3712.00
22.6824 3655.00
22.7476 3611.00
22.8128 3644.00
22.878 3587.00
22.9432 3744.00
23.0084 3646.00
23.0736 3582.00
23.1388 3699.00
23.204 3791.00
23.2692 4048.00
23.3344 4574.00
23.3996 5602.00
23.4647 5592.00
23.5299 4249.00
23.5951 3734.00
23.6603 3615.00
23.7255 3487.00
23.7907 3560.00
23.8559 3456.00
23.9211 3613.00
23.9863 3524.00
24.0515 3441.00
24.1167 3554.00
24.1819 3632.00
24.2471 3486.00
24.3123 3413.00
24.3775 3459.00
24.4427 3503.00
24.5079 3423.00
24.5731 3483.00
24.6383 3454.00
24.7035 3484.00
24.7687 3466.00
24.8339 3453.00
24.8991 3456.00
24.9643 3453.00
25.0295 3458.00
25.0947 3435.00
25.1599 3443.00
25.2251 3361.00
25.2903 3478.00
25.3555 3390.00
25.4207 3420.00
25.4859 3338.00
25.5511 3400.00
25.6163 3535.00
25.6815 3537.00
25.7467 3638.00
25.8119 3656.00
25.8771 3616.00
25.9423 3436.00
26.0075 3378.00
26.0727 3403.00
26.1379 3361.00
26.2031 3325.00
26.2683 3332.00
26.3335 3301.00
26.3987 3387.00
26.4639 3383.00
26.5291 3221.00
26.5943 3334.00
26.6595 3237.00
26.7247 3274.00
26.7899 3324.00
26.8551 3388.00
26.9203 3270.00
26.9855 3270.00
27.0507 3219.00
27.1159 3276.00
27.1811 3186.00
27.2463 3303.00
27.3115 3230.00
27.3767 3162.00
27.4419 3274.00
27.5071 3238.00
27.5723 3371.00
27.6375 3340.00
27.7027 3164.00
27.7679 3361.00
27.8331 3150.00
27.8983 3269.00
27.9635 3188.00
28.0287 3248.00
28.0939 3131.00
28.1591 3135.00
28.2243 3113.00
28.2894 3115.00
28.3546 3178.00
28.4198 3192.00
28.485 3184.00
28.5502 3170.00
28.6154 3200.00
28.6806 3234.00
28.7458 3308.00
28.811 3205.00
28.8762 3220.00
28.9414 3125.00
29.0066 3237.00
29.0718 3128.00
29.137 3215.00
29.2022 3153.00
29.2674 3174.00
29.3326 3251.00
29.3978 3173.00
29.463 3132.00
29.5282 3150.00
29.5934 3176.00
29.6586 3114.00
29.7238 3249.00
29.789 3102.00
29.8542 3229.00
29.9194 3286.00
29.9846 3276.00
30.0498 3232.00
30.115 3113.00
30.1802 3171.00
30.2454 3133.00
30.3106 3123.00
30.3758 3124.00
30.441 3053.00
30.5062 3186.00
30.5714 3067.00
30.6366 3139.00
30.7018 3087.00
30.767 3112.00
30.8322 3146.00
30.8974 3031.00
30.9626 2966.00
31.0278 3066.00
31.093 3161.00
31.1582 3099.00
31.2234 3159.00
31.2886 3183.00
31.3538 3168.00
31.419 3128.00
31.4842 3009.00
31.5494 3070.00
31.6146 3117.00
31.6798 2966.00
31.745 3099.00
31.8102 3046.00
31.8754 3192.00
31.9406 3099.00
32.0058 2980.00
32.071 3098.00
32.1362 3163.00
32.2014 3312.00
32.2666 3188.00
32.3318 3156.00
32.397 3158.00
32.4622 3131.00
32.5274 3225.00
32.5926 3190.00
32.6578 3158.00
32.723 3307.00
32.7882 3318.00
32.8534 3349.00
32.9186 3508.00
32.9838 3739.00
33.0489 4627.00
33.1141 7268.00
33.1793 15382.00
33.2445 24344.00
33.3097 17652.00
33.3749 8924.00
33.4401 4492.00
33.5053 3624.00
33.5705 3428.00
33.6357 3282.00
33.7009 3282.00
33.7661 3178.00
33.8313 3140.00
33.8965 3052.00
33.9617 2981.00
34.0269 3116.00
34.0921 3058.00
34.1573 2991.00
34.2225 3104.00
34.2877 3069.00
34.3529 3050.00
34.4181 3090.00
34.4833 3048.00
34.5485 2975.00
34.6137 2982.00
34.6789 3028.00
34.7441 3197.00
34.8093 3043.00
34.8745 3062.00
34.9397 3002.00
35.0049 3031.00
35.0701 2977.00
35.1353 3052.00
35.2005 3028.00
35.2657 3054.00
35.3309 2992.00
35.3961 2983.00
35.4613 2993.00
35.5265 3076.00
35.5917 2962.00
35.6569 2959.00
35.7221 2938.00
35.7873 3060.00
35.8525 3006.00
35.9177 3237.00
35.9829 3316.00
36.0481 3175.00
36.1133 3053.00
36.1785 2955.00
36.2437 2965.00
36.3089 3053.00
36.3741 3066.00
36.4393 2970.00
36.5045 3028.00
36.5697 2915.00
36.6349 2964.00
36.7001 2920.00
36.7653 2976.00
36.8305 2928.00
36.8957 2940.00
36.9609 2920.00
37.0261 2864.00
37.0913 2908.00
37.1565 2944.00
37.2217 2864.00
37.2869 2900.00
37.3521 2911.00
37.4173 3025.00
37.4825 2874.00
37.5477 2974.00
37.6129 2917.00
37.6781 2888.00
37.7433 2939.00
37.8085 2970.00
37.8736 2902.00
37.9388 2986.00
38.004 3025.00
38.0692 2916.00
38.1344 2978.00
38.1996 2978.00
38.2648 3019.00
38.33 3342.00
38.3952 4204.00
38.4604 5551.00
38.5256 5603.00
38.5908 4542.00
38.656 3624.00
38.7212 3302.00
38.7864 3469.00
38.8516 3173.00
38.9168 3027.00
38.982 2930.00
39.0472 2940.00
39.1124 2892.00
39.1776 2844.00
39.2428 2922.00
39.308 2841.00
39.3732 2809.00
39.4384 2858.00
39.5036 2841.00
39.5688 2856.00
39.634 2778.00
39.6992 2901.00
39.7644 2978.00
39.8296 2903.00
39.8948 2960.00
39.96 2858.00
40.0252 2960.00
40.0904 2911.00
40.1556 2849.00
40.2208 2870.00
40.286 2841.00
40.3512 2912.00
40.4164 2747.00
40.4816 2824.00
40.5468 2876.00
40.612 2744.00
40.6772 2884.00
40.7424 2867.00
40.8076 2865.00
40.8728 2951.00
40.938 3005.00
41.0032 3038.00
41.0684 2884.00
41.1336 2974.00
41.1988 2886.00
41.264 2929.00
41.3292 2839.00
41.3944 2951.00
41.4596 2835.00
41.5248 2844.00
41.59 2836.00
41.6552 2914.00
41.7204 2860.00
41.7856 2952.00
41.8508 2770.00
41.916 2938.00
41.9812 3038.00
42.0464 3052.00
42.1116 3074.00
42.1768 3199.00
42.242 3061.00
42.3072 2980.00
42.3724 3277.00
42.4376 3318.00
42.5028 3207.00
42.568 3052.00
42.6332 2962.00
42.6983 3044.00
42.7635 2780.00
42.8287 2815.00
42.8939 2767.00
42.9591 2919.00
43.0243 2822.00
43.0895 2838.00
43.1547 2914.00
43.2199 2885.00
43.2851 2934.00
43.3503 2961.00
43.4155 2897.00
43.4807 2899.00
43.5459 2876.00
43.6111 2860.00
43.6763 2808.00
43.7415 2992.00
43.8067 2789.00
43.8719 2913.00
43.9371 2827.00
44.0023 2775.00
44.0675 2788.00
44.1327 2809.00
44.1979 2830.00
44.2631 2920.00
44.3283 2903.00
44.3935 2832.00
44.4587 2865.00
44.5239 2906.00
44.5891 2879.00
44.6543 2783.00
44.7195 2844.00
44.7847 2871.00
44.8499 2888.00
44.9151 2812.00
44.9803 2882.00
45.0455 2834.00
45.1107 2753.00
45.1759 2775.00
45.2411 2993.00
45.3063 3131.00
45.3715 3744.00
45.4367 4117.00
45.5019 3578.00
45.5671 3374.00
45.6323 2859.00
45.6975 2904.00
45.7627 2882.00
45.8279 2851.00
45.8931 2792.00
45.9583 2897.00
46.0235 2723.00
46.0887 2812.00
46.1539 2776.00
46.2191 2813.00
46.2843 2808.00
46.3495 2801.00
46.4147 2744.00
46.4799 2779.00
46.5451 2808.00
46.6103 2827.00
46.6755 2806.00
46.7407 2738.00
46.8059 2829.00
46.8711 2775.00
46.9363 2685.00
47.0015 2708.00
47.0667 2794.00
47.1319 2794.00
47.1971 2874.00
47.2623 2801.00
47.3275 2801.00
47.3927 2758.00
47.4579 2858.00
47.523 2979.00
47.5882 2932.00
47.6534 2961.00
47.7186 2843.00
47.7838 2709.00
47.849 2743.00
47.9142 2789.00
47.9794 2773.00
48.0446 2759.00
48.1098 2773.00
48.175 2787.00
48.2402 2855.00
48.3054 2862.00
48.3706 2843.00
48.4358 2786.00
48.501 2826.00
48.5662 2753.00
48.6314 2877.00
48.6966 2852.00
48.7618 3020.00
48.827 2818.00
48.8922 2876.00
48.9574 2895.00
49.0226 2773.00
49.0878 2830.00
49.153 2864.00
49.2182 2809.00
49.2834 2909.00
49.3486 2790.00
49.4138 2911.00
49.479 3056.00
49.5442 3840.00
49.6094 4485.00
49.6746 3693.00
49.7398 3594.00
49.805 3035.00
49.8702 2817.00
49.9354 2896.00
50.0006 2845.00
50.0658 2771.00
50.131 2834.00
50.1962 2799.00
50.2614 2777.00
50.3266 2723.00
50.3918 2778.00
50.457 2799.00
50.5222 2800.00
50.5874 2833.00
50.6526 2818.00
50.7178 2837.00
50.783 2752.00
50.8482 2839.00
50.9134 2802.00
50.9786 2752.00
51.0438 2782.00
51.109 2761.00
51.1742 2741.00
51.2394 2729.00
51.3046 2756.00
51.3698 2834.00
51.435 2801.00
51.5002 2785.00
51.5654 2714.00
51.6306 2805.00
51.6958 2879.00
51.761 2722.00
51.8262 2766.00
51.8914 2773.00
51.9566 2733.00
52.0218 2810.00
52.087 2756.00
52.1522 2746.00
52.2174 2664.00
52.2826 2836.00
52.3477 2748.00
52.4129 2810.00
52.4781 2779.00
52.5433 2727.00
52.6085 2803.00
52.6737 2912.00
52.7389 2912.00
52.8041 2841.00
52.8693 2901.00
52.9345 2853.00
52.9997 2845.00
53.0649 2908.00
53.1301 2807.00
53.1953 2783.00
53.2605 2738.00
53.3257 2752.00
53.3909 2847.00
53.4561 2971.00
53.5213 3138.00
53.5865 2954.00
53.6517 2917.00
53.7169 2965.00
53.7821 2793.00
53.8473 2718.00
53.9125 2853.00
53.9777 2791.00
54.0429 2819.00
54.1081 2794.00
54.1733 2805.00
54.2385 2858.00
54.3037 2688.00
54.3689 2761.00
54.4341 2737.00
54.4993 2862.00
54.5645 2782.00
54.6297 2854.00
54.6949 2823.00
54.7601 2857.00
54.8253 2823.00
54.8905 2866.00
54.9557 2859.00
55.0209 2865.00
55.0861 2914.00
55.1513 3060.00
55.2165 3201.00
55.2817 3999.00
55.3469 5919.00
55.4121 7893.00
55.4773 6241.00
55.5425 6922.00
55.6077 6005.00
55.6729 4051.00
55.7381 4074.00
55.8033 3274.00
55.8685 2971.00
55.9337 2881.00
55.9989 2889.00
56.0641 2791.00
56.1293 2883.00
56.1945 2805.00
56.2597 2834.00
56.3249 2753.00
56.3901 2747.00
56.4553 2884.00
56.5205 2697.00
56.5857 2831.00
56.6509 2843.00
56.7161 2715.00
56.7813 2782.00
56.8465 2801.00
56.9117 2889.00
56.9769 2710.00
57.042 2835.00
57.1073 2740.00
57.1724 2823.00
57.2376 2952.00
57.3028 2920.00
57.368 2921.00
57.4332 2887.00
57.4984 2755.00
57.5636 2788.00
57.6288 2739.00
57.694 2727.00
57.7592 2666.00
57.8244 2787.00
57.8896 2844.00
57.9548 2638.00
58.02 2684.00
58.0852 2741.00
58.1504 2849.00
58.2156 2646.00
58.2808 2799.00
58.346 2741.00
58.4112 2749.00
58.4764 2785.00
58.5416 2760.00
58.6068 2716.00
58.672 2718.00
58.7372 2691.00
58.8024 2831.00
58.8676 2831.00
58.9328 2723.00
58.998 2838.00
59.0632 2785.00
59.1284 2880.00
59.1936 2861.00
59.2588 2814.00
59.324 2800.00
59.3892 2825.00
59.4544 2716.00
59.5196 2765.00
59.5848 2794.00
59.65 2758.00
59.7152 2740.00
59.7804 2832.00
59.8456 2804.00
59.9108 2797.00
59.976 2854.00
60.0412 2808.00
60.1064 2847.00
60.1716 2795.00
60.2368 2862.00
60.302 2964.00
60.3672 2956.00
60.4324 2906.00
60.4976 2837.00
60.5628 2917.00
60.628 2800.00
60.6932 2744.00
60.7584 2976.00
60.8236 3161.00
60.8888 3031.00
60.954 2991.00
61.0192 2950.00
61.0844 2901.00
61.1496 2816.00
61.2148 2837.00
61.28 2855.00
61.3452 2647.00
61.4104 2782.00
61.4756 2811.00
61.5408 2725.00
61.606 2781.00
61.6712 2778.00
61.7364 2716.00
61.8016 2799.00
61.8667 2950.00
61.932 2887.00
61.9971 2807.00
62.0623 2898.00
62.1275 2779.00
62.1927 2803.00
62.2579 2722.00
62.3231 2754.00
62.3883 2720.00
62.4535 2661.00
62.5187 2877.00
62.5839 2872.00
62.6491 2971.00
62.7143 2843.00
62.7795 2848.00
62.8447 2810.00
62.9099 2738.00
62.9751 2691.00
63.0403 2790.00
63.1055 2801.00
63.1707 2815.00
63.2359 2714.00
63.3011 2787.00
63.3663 2797.00
63.4315 2732.00
63.4967 2826.00
63.5619 2798.00
63.6271 2833.00
63.6923 2872.00
63.7575 2826.00
63.8227 2868.00
63.8879 2771.00
63.9531 2766.00
64.0183 2809.00
64.0835 2798.00
64.1487 2855.00
64.2139 3074.00
64.2791 3497.00
64.3443 3301.00
64.4095 3046.00
64.4747 3137.00
64.5399 2930.00
64.6051 2832.00
64.6703 2754.00
64.7355 2771.00
64.8007 2709.00
64.8659 2792.00
64.9311 2793.00
64.9963 2841.00
65.0615 2815.00
65.1267 2755.00
65.1919 2826.00
65.2571 2759.00
65.3223 2784.00
65.3875 2806.00
65.4527 2797.00
65.5179 2834.00
65.5831 2819.00
65.6483 2882.00
65.7135 2875.00
65.7787 3044.00
65.8439 3249.00
65.9091 4471.00
65.9743 5652.00
66.0395 4831.00
66.1047 4242.00
66.1699 4356.00
66.2351 3882.00
66.3003 3320.00
66.3655 3389.00
66.4307 3333.00
66.4959 3089.00
66.561 3169.00
66.6263 2996.00
66.6915 2819.00
66.7566 2825.00
66.8218 2821.00
66.887 2763.00
66.9522 2684.00
67.0174 2756.00
67.0826 2812.00
67.1478 2745.00
67.213 2753.00
67.2782 2769.00
67.3434 2714.00
67.4086 2796.00
67.4738 2715.00
67.539 2869.00
67.6042 2994.00
67.6694 3347.00
67.7346 3065.00
67.7998 2985.00
67.865 3187.00
67.9302 2833.00
67.9954 2675.00
68.0606 2765.00
68.1258 2747.00
68.191 2758.00
68.2562 2690.00
68.3214 2769.00
68.3866 2800.00
68.4518 2763.00
68.517 2770.00
68.5822 2809.00
68.6474 2862.00
68.7126 2908.00
68.7778 2739.00
68.843 2743.00
68.9082 2747.00
68.9734 2665.00
69.0386 2755.00
69.1038 2785.00
69.169 2750.00
69.2342 2864.00
69.2994 3218.00
69.3646 3166.00
69.4298 3131.00
69.495 3116.00
69.5602 2999.00
69.6254 2882.00
69.6906 2878.00
69.7558 2839.00
69.821 2925.00
69.8862 2669.00
69.9514 2657.00
70.0166 2767.00
70.0818 2784.00
70.147 2822.00
70.2122 2836.00
70.2774 2888.00
70.3426 2613.00
70.4078 2749.00
70.473 2698.00
70.5382 2789.00
70.6034 2675.00
70.6686 2721.00
70.7338 2731.00
70.799 2678.00
70.8642 2666.00
70.9294 2775.00
70.9946 2790.00
71.0598 2715.00
71.125 2771.00
71.1902 2776.00
71.2554 2761.00
71.3205 2713.00
71.3858 2712.00
71.451 2712.00
71.5162 2705.00
71.5813 2774.00
71.6465 2801.00
71.7117 2755.00
71.7769 2731.00
71.8421 2786.00
71.9073 2718.00
71.9725 2676.00
72.0377 2705.00
72.1029 2707.00
72.1681 2792.00
72.2333 2790.00
72.2985 2735.00
72.3637 2701.00
72.4289 2729.00
72.4941 2765.00
72.5593 2772.00
72.6245 2846.00
72.6897 2776.00
72.7549 2753.00
72.8201 2855.00
72.8853 2812.00
72.9505 2741.00
73.0157 2682.00
73.0809 2708.00
73.1461 2786.00
73.2113 2827.00
73.2765 2711.00
73.3417 2766.00
73.4069 2696.00
73.4721 2792.00
73.5373 2758.00
73.6025 2782.00
73.6677 2722.00
73.7329 2721.00
73.7981 2785.00
73.8633 2732.00
73.9285 2745.00
73.9937 2725.00
74.0589 2861.00
74.1241 3022.00
74.1893 2889.00
74.2545 2870.00
74.3197 2918.00
74.3849 2760.00
74.4501 2837.00
74.5153 2680.00
74.5805 2675.00
74.6457 2785.00
74.7109 2749.00
74.7761 2770.00
74.8413 2756.00
74.9065 2771.00
74.9717 2779.00
75.0369 2721.00
75.1021 2718.00
75.1673 2694.00
75.2325 2704.00
75.2977 2808.00
75.3629 2768.00
75.4281 2695.00
75.4933 2733.00
75.5585 2722.00
75.6237 2767.00
75.6889 2821.00
75.7541 2882.00
75.8193 2780.00
75.8845 2821.00
75.9497 2809.00
76.0149 2659.00
76.0801 2767.00
76.1452 2719.00
76.2104 2643.00
76.2756 2697.00
76.3409 2709.00
76.406 2713.00
76.4712 2664.00
76.5364 2763.00
76.6016 2802.00
76.6668 2706.00
76.732 2681.00
76.7972 2769.00
76.8624 2705.00
76.9276 2693.00
76.9928 2737.00
77.058 2721.00
77.1232 2672.00
77.1884 2808.00
77.2536 2702.00
77.3188 2833.00
77.384 2694.00
77.4492 2631.00
77.5144 2633.00
77.5796 2703.00
77.6448 2737.00
77.71 2745.00
77.7752 2786.00
77.8404 2655.00
77.9056 2735.00
77.9708 2742.00
78.036 2670.00
78.1012 2731.00
78.1664 2700.00
78.2316 2652.00
78.2968 2704.00
78.362 2630.00
78.4272 2752.00
78.4924 2801.00
78.5576 2901.00
78.6228 2655.00
78.688 2655.00
78.7532 2624.00
78.8184 2734.00
78.8836 2842.00
78.9488 2811.00
79.014 2717.00
79.0792 2803.00
79.1444 2696.00
79.2096 2750.00
79.2748 2712.00
79.34 2713.00
79.4052 2725.00
79.4704 2717.00
79.5356 2696.00
79.6008 2709.00
79.666 2715.00
79.7312 2683.00
79.7964 2751.00
79.8616 2651.00
79.9268 2666.00
79.992 2783.00
80.0572 2716.00
80.1224 2750.00
80.1876 2866.00
80.2528 2816.00
80.318 2710.00
80.3832 2739.00
80.4484 2843.00
80.5136 2674.00
80.5788 2762.00
80.644 2603.00
80.7092 2808.00
80.7744 2784.00
80.8396 2748.00
80.9048 2685.00
80.9699 2738.00
81.0351 2736.00
81.1003 2688.00
81.1655 2713.00
81.2307 2840.00
81.2959 2719.00
81.3611 2699.00
81.4263 2796.00
81.4915 2783.00
81.5567 2736.00
81.6219 2794.00
81.6871 2761.00
81.7523 2810.00
81.8175 2701.00
81.8827 2904.00
81.9479 2974.00
82.0131 2952.00
82.0783 2943.00
82.1435 2813.00
82.2087 2842.00
82.2739 2744.00
82.3391 2765.00
82.4043 2802.00
82.4695 2759.00
82.5347 2779.00
82.5999 2759.00
82.6651 2771.00
82.7303 2844.00
82.7955 2892.00
82.8607 2858.00
82.9259 2840.00
82.9911 2893.00
83.0563 2738.00
83.1215 2840.00
83.1867 2762.00
83.2519 2768.00
83.3171 2631.00
83.3823 2816.00
83.4475 2849.00
83.5127 2894.00
83.5779 2880.00
83.6431 2817.00
83.7083 2885.00
83.7735 2799.00
83.8387 2760.00
83.9039 2819.00
83.9691 2640.00
84.0343 2714.00
84.0995 2730.00
84.1647 2683.00
84.2299 2712.00
84.2951 2669.00
84.3603 2800.00
84.4255 2779.00
84.4907 2765.00
84.5559 2746.00
84.6211 2775.00
84.6863 2809.00
84.7515 2666.00
84.8167 2774.00
84.8819 2800.00
84.9471 2855.00
85.0123 2772.00
85.0775 2865.00
85.1427 2725.00
85.2079 2808.00
85.2731 2757.00
85.3383 2744.00
85.4035 2746.00
85.4687 2766.00
85.5339 2643.00
85.5991 2719.00
85.6643 2629.00
85.7295 2684.00
85.7946 2724.00
85.8598 2637.00
85.925 2728.00
85.9903 2679.00
86.0554 2750.00
86.1206 2626.00
86.1858 2645.00
86.251 2750.00
86.3162 2771.00
86.3814 2690.00
86.4466 2640.00
86.5118 2668.00
86.577 2852.00
86.6422 2805.00
86.7074 2773.00
86.7726 2815.00
86.8378 2739.00
86.903 2779.00
86.9682 2706.00
87.0334 2649.00
87.0986 2749.00
87.1638 2694.00
87.229 2758.00
87.2942 2831.00
87.3594 2684.00
87.4246 2741.00
87.4898 2590.00
87.555 2652.00
87.6202 2656.00
87.6854 2677.00
87.7506 2713.00
87.8158 2679.00
87.881 2701.00
87.9462 2724.00
88.0114 2743.00
88.0766 2758.00
88.1418 2811.00
88.207 2682.00
88.2722 2688.00
88.3374 2733.00
88.4026 2731.00
88.4678 2746.00
88.533 2724.00
88.5982 2680.00
88.6634 2651.00
88.7286 2685.00
88.7938 2661.00
88.859 2621.00
88.9242 2630.00
88.9894 2839.00
89.0546 2672.00
89.1198 2706.00
89.185 2742.00
89.2502 2682.00
89.3154 2816.00
89.3806 2731.00
89.4458 2688.00
89.511 2605.00
89.5762 2815.00
89.6414 2734.00
89.7066 2799.00
89.7718 2769.00
89.837 2718.00
89.9022 2809.00
89.9674 2752.00
90.0326 2711.00
90.0978 2645.00
90.163 2689.00
90.2282 2657.00
90.2934 2645.00
90.3586 2640.00
90.4238 2720.00
90.489 2646.00
90.5542 2589.00
90.6193 2668.00
90.6845 2692.00
90.7497 2714.00
90.8149 2695.00
90.8801 2797.00
90.9453 2746.00
91.0105 2679.00
91.0757 2866.00
91.1409 3227.00
91.2061 3169.00
91.2713 3047.00
91.3365 2917.00
91.4017 2828.00
91.4669 3187.00
91.5321 3170.00
91.5973 2990.00
91.6625 2851.00
91.7277 2818.00
91.7929 2866.00
91.8581 2767.00
91.9233 2664.00
91.9885 2713.00
92.0537 2693.00
92.1189 2723.00
92.1841 2735.00
92.2493 2607.00
92.3145 2699.00
92.3797 2703.00
92.4449 2648.00
92.5101 2677.00
92.5753 2694.00
92.6405 2720.00
92.7057 2756.00
92.7709 2661.00
92.8361 2750.00
92.9013 2681.00
92.9665 2667.00
93.0317 2766.00
93.0969 2670.00
93.1621 2707.00
93.2273 2701.00
93.2925 2725.00
93.3577 2685.00
93.4229 2650.00
93.4881 2653.00
93.5533 2705.00
93.6185 2706.00
93.6837 2663.00
93.7489 2698.00
93.8141 2794.00
93.8793 2736.00
93.9445 2711.00
94.0097 2759.00
94.0749 2863.00
94.1401 2927.00
94.2053 2942.00
94.2705 3014.00
94.3357 3064.00
94.4009 2876.00
94.4661 2844.00
94.5313 2890.00
94.5965 2897.00
94.6617 2884.00
94.7269 2857.00
94.7921 2690.00
94.8573 2713.00
94.9225 2843.00
94.9877 2726.00
95.0529 2793.00
95.1181 2751.00
95.1833 2762.00
95.2485 2803.00
95.3137 2779.00
95.3789 2672.00
95.444 2701.00
95.5092 2755.00
95.5744 2671.00
95.6396 2642.00
95.7048 2670.00
95.77 2817.00
95.8352 2729.00
95.9004 2720.00
95.9656 2692.00
96.0308 2751.00
96.096 2736.00
96.1612 2677.00
96.2264 2656.00
96.2916 2723.00
96.3568 2673.00
96.422 2754.00
96.4872 2718.00
96.5524 2742.00
96.6176 2649.00
96.6828 2762.00
96.748 2642.00
96.8132 2654.00
96.8784 2658.00
96.9436 2669.00
97.0088 2622.00
97.074 2609.00
97.1392 2798.00
97.2044 2768.00
97.2696 2737.00
97.3348 2687.00
97.4 2759.00
97.4652 2718.00
97.5304 2598.00
97.5956 2758.00
97.6608 2709.00
97.726 2687.00
97.7912 2774.00
97.8564 2683.00
97.9216 2702.00
97.9868 2659.00
98.052 2623.00
98.1172 2668.00
98.1824 2658.00
98.2476 2652.00
98.3128 2662.00
98.378 2705.00
98.4432 2740.00
98.5084 2712.00
98.5736 2640.00
98.6388 2652.00
98.704 2710.00
98.7692 2853.00
98.8344 2795.00
98.8996 2832.00
98.9648 2795.00
99.03 2699.00
99.0952 2703.00
99.1604 2701.00
99.2256 2793.00
99.2908 2773.00
99.356 2682.00
99.4212 2748.00
99.4864 2742.00
99.5516 2717.00
99.6168 2775.00
99.682 2709.00
99.7472 2764.00
99.8124 2705.00
99.8776 2694.00
99.9428 2696.00
100.008 2718.00
100.073 2646.00
100.095 2888.00