File: data/xrd_creation/results/PG_2644-1.xy
9.903433 2529.00
9.968632 2635.00
10.0338 2608.00
10.099 2554.00
10.1642 2589.00
10.2294 2455.00
10.2946 2464.00
10.3598 2564.00
10.425 2436.00
10.4902 2407.00
10.5554 2404.00
10.6206 2317.00
10.6858 2303.00
10.751 2316.00
10.8162 2376.00
10.8814 2337.00
10.9466 2288.00
11.0118 2193.00
11.077 2157.00
11.1422 2315.00
11.2074 2146.00
11.2726 2175.00
11.3378 2146.00
11.403 2075.00
11.4682 2117.00
11.5334 2183.00
11.5986 2075.00
11.6638 2083.00
11.729 2101.00
11.7942 2004.00
11.8594 2018.00
11.9246 2026.00
11.9898 2002.00
12.055 1964.00
12.1202 1946.00
12.1854 1940.00
12.2506 1939.00
12.3158 1939.00
12.381 1898.00
12.4462 1867.00
12.5114 1885.00
12.5766 1853.00
12.6418 1797.00
12.707 1839.00
12.7722 1825.00
12.8374 1827.00
12.9026 1820.00
12.9678 1725.00
13.033 1733.00
13.0982 1773.00
13.1634 1774.00
13.2286 1690.00
13.2938 1754.00
13.359 1774.00
13.4242 1758.00
13.4894 1747.00
13.5546 1654.00
13.6198 1714.00
13.685 1709.00
13.7502 1675.00
13.8154 1600.00
13.8805 1609.00
13.9457 1697.00
14.0109 1605.00
14.0761 1660.00
14.1413 1744.00
14.2065 1699.00
14.2717 1614.00
14.3369 1594.00
14.4021 1640.00
14.4673 1651.00
14.5325 1549.00
14.5977 1613.00
14.6629 1553.00
14.7281 1621.00
14.7933 1591.00
14.8585 1588.00
14.9237 1589.00
14.9889 1615.00
15.0541 1611.00
15.1193 1590.00
15.1845 1545.00
15.2497 1570.00
15.3149 1497.00
15.3801 1591.00
15.4453 1619.00
15.5105 1483.00
15.5757 1481.00
15.6409 1451.00
15.7061 1516.00
15.7713 1511.00
15.8365 1542.00
15.9017 1490.00
15.9669 1572.00
16.0321 1636.00
16.0973 1472.00
16.1625 1516.00
16.2277 1509.00
16.2929 1494.00
16.3581 1410.00
16.4233 1427.00
16.4885 1471.00
16.5537 1481.00
16.6189 1519.00
16.6841 1505.00
16.7493 1472.00
16.8145 1490.00
16.8797 1447.00
16.9449 1472.00
17.0101 1410.00
17.0753 1420.00
17.1405 1398.00
17.2057 1445.00
17.2709 1360.00
17.3361 1431.00
17.4013 1410.00
17.4665 1351.00
17.5317 1392.00
17.5969 1424.00
17.6621 1412.00
17.7273 1372.00
17.7925 1353.00
17.8577 1395.00
17.9229 1460.00
17.9881 1401.00
18.0533 1383.00
18.1185 1323.00
18.1837 1353.00
18.2489 1408.00
18.3141 1451.00
18.3793 1349.00
18.4445 1326.00
18.5097 1294.00
18.5749 1331.00
18.6401 1301.00
18.7052 1320.00
18.7704 1240.00
18.8356 1255.00
18.9008 1307.00
18.966 1266.00
19.0312 1301.00
19.0964 1260.00
19.1616 1277.00
19.2268 1291.00
19.292 1268.00
19.3572 1256.00
19.4224 1178.00
19.4876 1155.00
19.5528 1237.00
19.618 1230.00
19.6832 1257.00
19.7484 1267.00
19.8136 1240.00
19.8788 1173.00
19.944 1213.00
20.0092 1197.00
20.0744 1178.00
20.1396 1221.00
20.2048 1159.00
20.27 1184.00
20.3352 1165.00
20.4004 1162.00
20.4656 1189.00
20.5308 1220.00
20.596 1147.00
20.6612 1153.00
20.7264 1188.00
20.7916 1170.00
20.8568 1197.00
20.922 1107.00
20.9872 1120.00
21.0524 1165.00
21.1176 1176.00
21.1828 1101.00
21.248 1130.00
21.3132 1174.00
21.3784 1164.00
21.4436 1110.00
21.5088 1137.00
21.574 1037.00
21.6392 1135.00
21.7044 1171.00
21.7696 1102.00
21.8348 1084.00
21.9 1082.00
21.9652 1140.00
22.0304 1095.00
22.0956 1078.00
22.1608 1127.00
22.226 1126.00
22.2912 1031.00
22.3564 1149.00
22.4216 1066.00
22.4868 1065.00
22.552 1081.00
22.6172 1036.00
22.6824 1094.00
22.7476 1056.00
22.8128 1029.00
22.878 1064.00
22.9432 1003.00
23.0084 1044.00
23.0736 1045.00
23.1388 1074.00
23.204 1015.00
23.2692 1035.00
23.3344 1035.00
23.3996 1033.00
23.4647 987.00
23.5299 1022.00
23.5951 1038.00
23.6603 951.00
23.7255 981.00
23.7907 999.00
23.8559 950.00
23.9211 1020.00
23.9863 998.00
24.0515 1060.00
24.1167 969.00
24.1819 986.00
24.2471 1001.00
24.3123 986.00
24.3775 973.00
24.4427 999.00
24.5079 988.00
24.5731 957.00
24.6383 994.00
24.7035 978.00
24.7687 1006.00
24.8339 914.00
24.8991 1005.00
24.9643 951.00
25.0295 932.00
25.0947 937.00
25.1599 991.00
25.2251 983.00
25.2903 972.00
25.3555 932.00
25.4207 890.00
25.4859 974.00
25.5511 1029.00
25.6163 938.00
25.6815 902.00
25.7467 963.00
25.8119 918.00
25.8771 951.00
25.9423 946.00
26.0075 989.00
26.0727 950.00
26.1379 980.00
26.2031 979.00
26.2683 1075.00
26.3335 1058.00
26.3987 1164.00
26.4639 1281.00
26.5291 1492.00
26.5943 1806.00
26.6595 2530.00
26.7247 3564.00
26.7899 5163.00
26.8551 6688.00
26.9203 5118.00
26.9855 2600.00
27.0507 1553.00
27.1159 1198.00
27.1811 1128.00
27.2463 1024.00
27.3115 1017.00
27.3767 950.00
27.4419 948.00
27.5071 949.00
27.5723 951.00
27.6375 885.00
27.7027 895.00
27.7679 860.00
27.8331 961.00
27.8983 872.00
27.9635 906.00
28.0287 858.00
28.0939 874.00
28.1591 909.00
28.2243 858.00
28.2894 840.00
28.3546 860.00
28.4198 821.00
28.485 885.00
28.5502 892.00
28.6154 823.00
28.6806 864.00
28.7458 827.00
28.811 847.00
28.8762 897.00
28.9414 844.00
29.0066 937.00
29.0718 1015.00
29.137 1172.00
29.2022 1115.00
29.2674 911.00
29.3326 839.00
29.3978 762.00
29.463 854.00
29.5282 801.00
29.5934 802.00
29.6586 794.00
29.7238 805.00
29.789 799.00
29.8542 786.00
29.9194 792.00
29.9846 784.00
30.0498 841.00
30.115 776.00
30.1802 805.00
30.2454 788.00
30.3106 780.00
30.3758 754.00
30.441 788.00
30.5062 800.00
30.5714 779.00
30.6366 819.00
30.7018 819.00
30.767 827.00
30.8322 791.00
30.8974 791.00
30.9626 807.00
31.0278 755.00
31.093 789.00
31.1582 786.00
31.2234 849.00
31.2886 896.00
31.3538 850.00
31.419 757.00
31.4842 815.00
31.5494 786.00
31.6146 731.00
31.6798 739.00
31.745 766.00
31.8102 775.00
31.8754 770.00
31.9406 792.00
32.0058 760.00
32.071 740.00
32.1362 686.00
32.2014 788.00
32.2666 811.00
32.3318 855.00
32.397 916.00
32.4622 1028.00
32.5274 1307.00
32.5926 1427.00
32.6578 1118.00
32.723 849.00
32.7882 824.00
32.8534 847.00
32.9186 816.00
32.9838 759.00
33.0489 835.00
33.1141 851.00
33.1793 865.00
33.2445 847.00
33.3097 845.00
33.3749 860.00
33.4401 866.00
33.5053 805.00
33.5705 808.00
33.6357 820.00
33.7009 891.00
33.7661 965.00
33.8313 1125.00
33.8965 1488.00
33.9617 2201.00
34.0269 3477.00
34.0921 5435.00
34.1573 6193.00
34.2225 4364.00
34.2877 2374.00
34.3529 1346.00
34.4181 1006.00
34.4833 917.00
34.5485 890.00
34.6137 849.00
34.6789 756.00
34.7441 731.00
34.8093 783.00
34.8745 684.00
34.9397 725.00
35.0049 703.00
35.0701 695.00
35.1353 677.00
35.2005 689.00
35.2657 752.00
35.3309 737.00
35.3961 712.00
35.4613 709.00
35.5265 695.00
35.5917 710.00
35.6569 695.00
35.7221 693.00
35.7873 757.00
35.8525 770.00
35.9177 727.00
35.9829 756.00
36.0481 702.00
36.1133 821.00
36.1785 909.00
36.2437 1156.00
36.3089 1550.00
36.3741 1644.00
36.4393 1231.00
36.5045 888.00
36.5697 792.00
36.6349 776.00
36.7001 826.00
36.7653 821.00
36.8305 735.00
36.8957 714.00
36.9609 679.00
37.0261 691.00
37.0913 690.00
37.1565 665.00
37.2217 641.00
37.2869 665.00
37.3521 680.00
37.4173 630.00
37.4825 697.00
37.5477 676.00
37.6129 662.00
37.6781 721.00
37.7433 714.00
37.8085 698.00
37.8736 742.00
37.9388 796.00
38.004 980.00
38.0692 1262.00
38.1344 1816.00
38.1996 2378.00
38.2648 2173.00
38.33 1567.00
38.3952 1037.00
38.4604 829.00
38.5256 730.00
38.5908 715.00
38.656 671.00
38.7212 662.00
38.7864 621.00
38.8516 619.00
38.9168 671.00
38.982 654.00
39.0472 653.00
39.1124 765.00
39.1776 884.00
39.2428 949.00
39.308 907.00
39.3732 736.00
39.4384 685.00
39.5036 625.00
39.5688 630.00
39.634 586.00
39.6992 632.00
39.7644 635.00
39.8296 568.00
39.8948 623.00
39.96 613.00
40.0252 594.00
40.0904 595.00
40.1556 631.00
40.2208 674.00
40.286 611.00
40.3512 598.00
40.4164 630.00
40.4816 600.00
40.5468 574.00
40.612 583.00
40.6772 581.00
40.7424 595.00
40.8076 610.00
40.8728 626.00
40.938 629.00
41.0032 585.00
41.0684 591.00
41.1336 620.00
41.1988 679.00
41.264 631.00
41.3292 564.00
41.3944 554.00
41.4596 604.00
41.5248 624.00
41.59 635.00
41.6552 613.00
41.7204 568.00
41.7856 573.00
41.8508 595.00
41.916 637.00
41.9812 628.00
42.0464 596.00
42.1116 624.00
42.1768 574.00
42.242 612.00
42.3072 546.00
42.3724 554.00
42.4376 592.00
42.5028 568.00
42.568 577.00
42.6332 599.00
42.6983 581.00
42.7635 640.00
42.8287 629.00
42.8939 664.00
42.9591 657.00
43.0243 670.00
43.0895 632.00
43.1547 580.00
43.2199 583.00
43.2851 571.00
43.3503 558.00
43.4155 567.00
43.4807 595.00
43.5459 575.00
43.6111 583.00
43.6763 575.00
43.7415 555.00
43.8067 600.00
43.8719 591.00
43.9371 601.00
44.0023 553.00
44.0675 633.00
44.1327 601.00
44.1979 624.00
44.2631 561.00
44.3283 550.00
44.3935 541.00
44.4587 583.00
44.5239 594.00
44.5891 716.00
44.6543 810.00
44.7195 718.00
44.7847 702.00
44.8499 607.00
44.9151 627.00
44.9803 601.00
45.0455 586.00
45.1107 575.00
45.1759 539.00
45.2411 565.00
45.3063 575.00
45.3715 592.00
45.4367 591.00
45.5019 610.00
45.5671 533.00
45.6323 604.00
45.6975 570.00
45.7627 569.00
45.8279 551.00
45.8931 570.00
45.9583 561.00
46.0235 524.00
46.0887 557.00
46.1539 574.00
46.2191 555.00
46.2843 564.00
46.3495 540.00
46.4147 601.00
46.4799 560.00
46.5451 554.00
46.6103 571.00
46.6755 592.00
46.7407 558.00
46.8059 538.00
46.8711 576.00
46.9363 550.00
47.0015 539.00
47.0667 600.00
47.1319 543.00
47.1971 550.00
47.2623 525.00
47.3275 558.00
47.3927 577.00
47.4579 534.00
47.523 546.00
47.5882 558.00
47.6534 584.00
47.7186 563.00
47.7838 538.00
47.849 570.00
47.9142 538.00
47.9794 482.00
48.0446 544.00
48.1098 549.00
48.175 553.00
48.2402 571.00
48.3054 571.00
48.3706 555.00
48.4358 539.00
48.501 523.00
48.5662 546.00
48.6314 546.00
48.6966 575.00
48.7618 546.00
48.827 581.00
48.8922 546.00
48.9574 525.00
49.0226 582.00
49.0878 539.00
49.153 531.00
49.2182 575.00
49.2834 501.00
49.3486 604.00
49.4138 573.00
49.479 568.00
49.5442 582.00
49.6094 612.00
49.6746 529.00
49.7398 551.00
49.805 537.00
49.8702 559.00
49.9354 618.00
50.0006 615.00
50.0658 638.00
50.131 604.00
50.1962 536.00
50.2614 599.00
50.3266 531.00
50.3918 550.00
50.457 552.00
50.5222 564.00
50.5874 568.00
50.6526 579.00
50.7178 573.00
50.783 633.00
50.8482 716.00
50.9134 810.00
50.9786 779.00
51.0438 752.00
51.109 706.00
51.1742 621.00
51.2394 607.00
51.3046 552.00
51.3698 641.00
51.435 630.00
51.5002 686.00
51.5654 694.00
51.6306 794.00
51.6958 827.00
51.761 1060.00
51.8262 1501.00
51.8914 2521.00
51.9566 4632.00
52.0218 6233.00
52.087 4821.00
52.1522 3808.00
52.2174 2427.00
52.2826 1272.00
52.3477 944.00
52.4129 874.00
52.4781 723.00
52.5433 645.00
52.6085 639.00
52.6737 618.00
52.7389 594.00
52.8041 558.00
52.8693 587.00
52.9345 592.00
52.9997 580.00
53.0649 541.00
53.1301 560.00
53.1953 565.00
53.2605 633.00
53.3257 557.00
53.3909 516.00
53.4561 537.00
53.5213 581.00
53.5865 573.00
53.6517 627.00
53.7169 539.00
53.7821 556.00
53.8473 594.00
53.9125 654.00
53.9777 642.00
54.0429 719.00
54.1081 637.00
54.1733 604.00
54.2385 623.00
54.3037 592.00
54.3689 596.00
54.4341 567.00
54.4993 569.00
54.5645 564.00
54.6297 631.00
54.6949 611.00
54.7601 705.00
54.8253 811.00
54.8905 1195.00
54.9557 1641.00
55.0209 1832.00
55.0861 1460.00
55.1513 1313.00
55.2165 950.00
55.2817 776.00
55.3469 658.00
55.4121 640.00
55.4773 636.00
55.5425 601.00
55.6077 584.00
55.6729 584.00
55.7381 550.00
55.8033 548.00
55.8685 587.00
55.9337 585.00
55.9989 585.00
56.0641 583.00
56.1293 570.00
56.1945 654.00
56.2597 631.00
56.3249 654.00
56.3901 581.00
56.4553 589.00
56.5205 557.00
56.5857 573.00
56.6509 539.00
56.7161 523.00
56.7813 531.00
56.8465 539.00
56.9117 518.00
56.9769 591.00
57.042 560.00
57.1073 558.00
57.1724 567.00
57.2376 547.00
57.3028 557.00
57.368 578.00
57.4332 557.00
57.4984 533.00
57.5636 600.00
57.6288 596.00
57.694 554.00
57.7592 597.00
57.8244 659.00
57.8896 718.00
57.9548 834.00
58.02 1100.00
58.0852 1154.00
58.1504 1034.00
58.2156 883.00
58.2808 744.00
58.346 620.00
58.4112 623.00
58.4764 593.00
58.5416 601.00
58.6068 646.00
58.672 767.00
58.7372 936.00
58.8024 801.00
58.8676 760.00
58.9328 674.00
58.998 630.00
59.0632 560.00
59.1284 604.00
59.1936 556.00
59.2588 582.00
59.324 569.00
59.3892 547.00
59.4544 540.00
59.5196 557.00
59.5848 561.00
59.65 578.00
59.7152 563.00
59.7804 571.00
59.8456 696.00
59.9108 674.00
59.976 904.00
60.0412 1167.00
60.1064 1026.00
60.1716 912.00
60.2368 895.00
60.302 712.00
60.3672 595.00
60.4324 556.00
60.4976 576.00
60.5628 567.00
60.628 538.00
60.6932 552.00
60.7584 582.00
60.8236 562.00
60.8888 536.00
60.954 537.00
61.0192 524.00
61.0844 561.00
61.1496 576.00
61.2148 542.00
61.28 506.00
61.3452 517.00
61.4104 567.00
61.4756 557.00
61.5408 560.00
61.606 560.00
61.6712 617.00
61.7364 632.00
61.8016 629.00
61.8667 680.00
61.932 770.00
61.9971 1059.00
62.0623 1504.00
62.1275 1720.00
62.1927 1413.00
62.2579 1265.00
62.3231 1137.00
62.3883 796.00
62.4535 662.00
62.5187 635.00
62.5839 600.00
62.6491 545.00
62.7143 585.00
62.7795 589.00
62.8447 563.00
62.9099 538.00
62.9751 587.00
63.0403 558.00
63.1055 538.00
63.1707 515.00
63.2359 537.00
63.3011 599.00
63.3663 598.00
63.4315 582.00
63.4967 582.00
63.5619 561.00
63.6271 561.00
63.6923 537.00
63.7575 554.00
63.8227 554.00
63.8879 530.00
63.9531 571.00
64.0183 564.00
64.0835 507.00
64.1487 560.00
64.2139 580.00
64.2791 553.00
64.3443 562.00
64.4095 610.00
64.4747 630.00
64.5399 621.00
64.6051 633.00
64.6703 677.00
64.7355 768.00
64.8007 1048.00
64.8659 1446.00
64.9311 1873.00
64.9963 1858.00
65.0615 1484.00
65.1267 1387.00
65.1919 1079.00
65.2571 782.00
65.3223 731.00
65.3875 625.00
65.4527 593.00
65.5179 621.00
65.5831 582.00
65.6483 687.00
65.7135 592.00
65.7787 629.00
65.8439 683.00
65.9091 738.00
65.9743 843.00
66.0395 1040.00
66.1047 1498.00
66.1699 2127.00
66.2351 1927.00
66.3003 1519.00
66.3655 1459.00
66.4307 1152.00
66.4959 835.00
66.561 688.00
66.6263 678.00
66.6915 624.00
66.7566 574.00
66.8218 564.00
66.887 614.00
66.9522 546.00
67.0174 473.00
67.0826 534.00
67.1478 533.00
67.213 540.00
67.2782 517.00
67.3434 531.00
67.4086 544.00
67.4738 566.00
67.539 551.00
67.6042 535.00
67.6694 593.00
67.7346 601.00
67.7998 558.00
67.865 637.00
67.9302 551.00
67.9954 561.00
68.0606 577.00
68.1258 567.00
68.191 567.00
68.2562 554.00
68.3214 526.00
68.3866 543.00
68.4518 575.00
68.517 569.00
68.5822 541.00
68.6474 574.00
68.7126 523.00
68.7778 560.00
68.843 549.00
68.9082 481.00
68.9734 540.00
69.0386 544.00
69.1038 506.00
69.169 539.00
69.2342 544.00
69.2994 560.00
69.3646 564.00
69.4298 540.00
69.495 557.00
69.5602 565.00
69.6254 539.00
69.6906 549.00
69.7558 524.00
69.821 569.00
69.8862 589.00
69.9514 600.00
70.0166 585.00
70.0818 563.00
70.147 571.00
70.2122 567.00
70.2774 567.00
70.3426 555.00
70.4078 519.00
70.473 542.00
70.5382 521.00
70.6034 520.00
70.6686 583.00
70.7338 577.00
70.799 526.00
70.8642 503.00
70.9294 587.00
70.9946 572.00
71.0598 596.00
71.125 559.00
71.1902 575.00
71.2554 668.00
71.3205 686.00
71.3858 839.00
71.451 1122.00
71.5162 1128.00
71.5813 963.00
71.6465 941.00
71.7117 920.00
71.7769 699.00
71.8421 603.00
71.9073 574.00
71.9725 583.00
72.0377 555.00
72.1029 564.00
72.1681 530.00
72.2333 560.00
72.2985 531.00
72.3637 527.00
72.4289 560.00
72.4941 536.00
72.5593 608.00
72.6245 557.00
72.6897 538.00
72.7549 567.00
72.8201 560.00
72.8853 524.00
72.9505 535.00
73.0157 517.00
73.0809 553.00
73.1461 523.00
73.2113 531.00
73.2765 534.00
73.3417 581.00
73.4069 528.00
73.4721 573.00
73.5373 565.00
73.6025 512.00
73.6677 536.00
73.7329 546.00
73.7981 584.00
73.8633 566.00
73.9285 542.00
73.9937 553.00
74.0589 571.00
74.1241 554.00
74.1893 571.00
74.2545 641.00
74.3197 672.00
74.3849 655.00
74.4501 597.00
74.5153 585.00
74.5805 636.00
74.6457 592.00
74.7109 551.00
74.7761 550.00
74.8413 547.00
74.9065 542.00
74.9717 518.00
75.0369 553.00
75.1021 545.00
75.1673 572.00
75.2325 581.00
75.2977 500.00
75.3629 555.00
75.4281 545.00
75.4933 537.00
75.5585 570.00
75.6237 567.00
75.6889 519.00
75.7541 602.00
75.8193 493.00
75.8845 529.00
75.9497 541.00
76.0149 540.00
76.0801 579.00
76.1452 532.00
76.2104 531.00
76.2756 581.00
76.3409 573.00
76.406 556.00
76.4712 536.00
76.5364 517.00
76.6016 521.00
76.6668 567.00
76.732 561.00
76.7972 565.00
76.8624 550.00
76.9276 592.00
76.9928 566.00
77.058 592.00
77.1232 549.00
77.1884 531.00
77.2536 534.00
77.3188 544.00
77.384 569.00
77.4492 554.00
77.5144 558.00
77.5796 574.00
77.6448 615.00
77.71 566.00
77.7752 569.00
77.8404 557.00
77.9056 572.00
77.9708 607.00
78.036 563.00
78.1012 569.00
78.1664 547.00
78.2316 532.00
78.2968 540.00
78.362 593.00
78.4272 621.00
78.4924 580.00
78.5576 623.00
78.6228 625.00
78.688 641.00
78.7532 899.00
78.8184 1111.00
78.8836 1499.00
78.9488 1549.00
79.014 1161.00
79.0792 1076.00
79.1444 1176.00
79.2096 908.00
79.2748 763.00
79.34 581.00
79.4052 621.00
79.4704 586.00
79.5356 556.00
79.6008 530.00
79.666 575.00
79.7312 567.00
79.7964 530.00
79.8616 521.00
79.9268 575.00
79.992 565.00
80.0572 537.00
80.1224 603.00
80.1876 624.00
80.2528 655.00
80.318 571.00
80.3832 550.00
80.4484 598.00
80.5136 620.00
80.5788 598.00
80.644 570.00
80.7092 571.00
80.7744 564.00
80.8396 537.00
80.9048 551.00
80.9699 584.00
81.0351 549.00
81.1003 638.00
81.1655 600.00
81.2307 790.00
81.2959 880.00
81.3611 916.00
81.4263 806.00
81.4915 683.00
81.5567 791.00
81.6219 730.00
81.6871 627.00
81.7523 582.00
81.8175 591.00
81.8827 568.00
81.9479 550.00
82.0131 531.00
82.0783 533.00
82.1435 597.00
82.2087 575.00
82.2739 560.00
82.3391 581.00
82.4043 554.00
82.4695 600.00
82.5347 526.00
82.5999 577.00
82.6651 540.00
82.7303 541.00
82.7955 572.00
82.8607 555.00
82.9259 566.00
82.9911 587.00
83.0563 509.00
83.1215 589.00
83.1867 555.00
83.2519 561.00
83.3171 582.00
83.3823 553.00
83.4475 568.00
83.5127 578.00
83.5779 596.00
83.6431 637.00
83.7083 682.00
83.7735 764.00
83.8387 1042.00
83.9039 1397.00
83.9691 1129.00
84.0343 919.00
84.0995 984.00
84.1647 996.00
84.2299 793.00
84.2951 706.00
84.3603 614.00
84.4255 617.00
84.4907 651.00
84.5559 594.00
84.6211 569.00
84.6863 587.00
84.7515 592.00
84.8167 534.00
84.8819 588.00
84.9471 534.00
85.0123 557.00
85.0775 568.00
85.1427 550.00
85.2079 556.00
85.2731 556.00
85.3383 562.00
85.4035 548.00
85.4687 575.00
85.5339 586.00
85.5991 519.00
85.6643 560.00
85.7295 534.00
85.7946 578.00
85.8598 549.00
85.925 568.00
85.9903 575.00
86.0554 597.00
86.1206 567.00
86.1858 596.00
86.251 565.00
86.3162 580.00
86.3814 586.00
86.4466 592.00
86.5118 619.00
86.577 622.00
86.6422 635.00
86.7074 603.00
86.7726 641.00
86.8378 587.00
86.903 635.00
86.9682 586.00
87.0334 606.00
87.0986 652.00
87.1638 615.00
87.229 625.00
87.2942 650.00
87.3594 868.00
87.4246 894.00
87.4898 830.00
87.555 734.00
87.6202 718.00
87.6854 810.00
87.7506 741.00
87.8158 629.00
87.881 580.00
87.9462 569.00
88.0114 560.00
88.0766 590.00
88.1418 587.00
88.207 571.00
88.2722 552.00
88.3374 605.00
88.4026 527.00
88.4678 554.00
88.533 595.00
88.5982 566.00
88.6634 584.00
88.7286 559.00
88.7938 575.00
88.859 585.00
88.9242 568.00
88.9894 592.00
89.0546 568.00
89.1198 602.00
89.185 583.00
89.2502 562.00
89.3154 615.00
89.3806 572.00
89.4458 657.00
89.511 620.00
89.5762 615.00
89.6414 646.00
89.7066 653.00
89.7718 790.00
89.837 904.00
89.9022 1291.00
89.9674 1566.00
90.0326 1282.00
90.0978 1059.00
90.163 1002.00
90.2282 1052.00
90.2934 1013.00
90.3586 870.00
90.4238 724.00
90.489 705.00
90.5542 676.00
90.6193 660.00
90.6845 655.00
90.7497 734.00
90.8149 754.00
90.8801 830.00
90.9453 1010.00
91.0105 1297.00
91.0757 1545.00
91.1409 1410.00
91.2061 1067.00
91.2713 1045.00
91.3365 1090.00
91.4017 1090.00
91.4669 904.00
91.5321 702.00
91.5973 651.00
91.6625 604.00
91.7277 659.00
91.7929 586.00
91.8581 586.00
91.9233 600.00
91.9885 604.00
92.0537 645.00
92.1189 552.00
92.1841 578.00
92.2493 569.00
92.3145 580.00
92.3797 540.00
92.4449 591.00
92.5101 557.00
92.5753 592.00
92.6405 607.00
92.7057 581.00
92.7709 567.00
92.8361 606.00
92.9013 598.00
92.9665 595.00
93.0317 656.00
93.0969 633.00
93.1621 614.00
93.2273 691.00
93.2925 680.00
93.3577 782.00
93.4229 935.00
93.4881 1007.00
93.5533 889.00
93.6185 796.00
93.6837 793.00
93.7489 823.00
93.8141 812.00
93.8793 696.00
93.9445 617.00
94.0097 594.00
94.0749 612.00
94.1401 611.00
94.2053 586.00
94.2705 565.00
94.3357 598.00
94.4009 621.00
94.4661 600.00
94.5313 583.00
94.5965 590.00
94.6617 641.00
94.7269 609.00
94.7921 571.00
94.8573 621.00
94.9225 604.00
94.9877 580.00
95.0529 560.00
95.1181 607.00
95.1833 613.00
95.2485 555.00
95.3137 599.00
95.3789 575.00
95.444 590.00
95.5092 587.00
95.5744 583.00
95.6396 615.00
95.7048 626.00
95.77 647.00
95.8352 553.00
95.9004 673.00
95.9656 632.00
96.0308 702.00
96.096 790.00
96.1612 999.00
96.2264 920.00
96.2916 761.00
96.3568 742.00
96.422 790.00
96.4872 832.00
96.5524 789.00
96.6176 749.00
96.6828 739.00
96.748 615.00
96.8132 670.00
96.8784 590.00
96.9436 607.00
97.0088 640.00
97.074 591.00
97.1392 636.00
97.2044 624.00
97.2696 576.00
97.3348 615.00
97.4 567.00
97.4652 556.00
97.5304 590.00
97.5956 566.00
97.6608 589.00
97.726 584.00
97.7912 575.00
97.8564 611.00
97.9216 636.00
97.9868 586.00
98.052 581.00
98.1172 658.00
98.1824 579.00
98.2476 611.00
98.3128 611.00
98.378 640.00
98.4432 633.00
98.5084 619.00
98.5736 620.00
98.6388 647.00
98.704 616.00
98.7692 583.00
98.8344 637.00
98.8996 536.00
98.9648 572.00
99.03 600.00
99.0952 658.00
99.1604 641.00
99.2256 613.00
99.2908 590.00
99.356 609.00
99.4212 542.00
99.4864 568.00
99.5516 575.00
99.6168 635.00
99.682 574.00
99.7472 626.00
99.8124 590.00
99.8776 610.00
99.9428 570.00
100.008 546.00
100.073 615.00
100.095 575.00