File: data/xrd_creation/results/PG_2143-1.xy
9.903433 2689.00
9.968632 2714.00
10.0338 2755.00
10.099 2735.00
10.1642 2619.00
10.2294 2691.00
10.2946 2734.00
10.3598 2621.00
10.425 2628.00
10.4902 2613.00
10.5554 2580.00
10.6206 2500.00
10.6858 2555.00
10.751 2536.00
10.8162 2498.00
10.8814 2508.00
10.9466 2527.00
11.0118 2474.00
11.077 2407.00
11.1422 2418.00
11.2074 2410.00
11.2726 2318.00
11.3378 2451.00
11.403 2458.00
11.4682 2287.00
11.5334 2426.00
11.5986 2338.00
11.6638 2391.00
11.729 2221.00
11.7942 2323.00
11.8594 2268.00
11.9246 2377.00
11.9898 2228.00
12.055 2121.00
12.1202 2288.00
12.1854 2194.00
12.2506 2245.00
12.3158 2185.00
12.381 2140.00
12.4462 2067.00
12.5114 2120.00
12.5766 2076.00
12.6418 2133.00
12.707 2112.00
12.7722 2098.00
12.8374 1953.00
12.9026 2085.00
12.9678 2030.00
13.033 2067.00
13.0982 2104.00
13.1634 1994.00
13.2286 2049.00
13.2938 1993.00
13.359 1990.00
13.4242 1964.00
13.4894 1919.00
13.5546 1960.00
13.6198 1927.00
13.685 1920.00
13.7502 1937.00
13.8154 1885.00
13.8805 1957.00
13.9457 1901.00
14.0109 1894.00
14.0761 1923.00
14.1413 1855.00
14.2065 1842.00
14.2717 1924.00
14.3369 1880.00
14.4021 1829.00
14.4673 1926.00
14.5325 1846.00
14.5977 1838.00
14.6629 1835.00
14.7281 1843.00
14.7933 1841.00
14.8585 1935.00
14.9237 1913.00
14.9889 1886.00
15.0541 1842.00
15.1193 1892.00
15.1845 1918.00
15.2497 1985.00
15.3149 2066.00
15.3801 2193.00
15.4453 2318.00
15.5105 2613.00
15.5757 3055.00
15.6409 3543.00
15.7061 4587.00
15.7713 6383.00
15.8365 8713.00
15.9017 11090.00
15.9669 12277.00
16.0321 10162.00
16.0973 6525.00
16.1625 4284.00
16.2277 3144.00
16.2929 2586.00
16.3581 2366.00
16.4233 2096.00
16.4885 2003.00
16.5537 1936.00
16.6189 1940.00
16.6841 1875.00
16.7493 1844.00
16.8145 1824.00
16.8797 1724.00
16.9449 1720.00
17.0101 1762.00
17.0753 1737.00
17.1405 1699.00
17.2057 1735.00
17.2709 1622.00
17.3361 1624.00
17.4013 1621.00
17.4665 1598.00
17.5317 1610.00
17.5969 1507.00
17.6621 1658.00
17.7273 1582.00
17.7925 1613.00
17.8577 1564.00
17.9229 1543.00
17.9881 1535.00
18.0533 1514.00
18.1185 1545.00
18.1837 1563.00
18.2489 1439.00
18.3141 1520.00
18.3793 1560.00
18.4445 1509.00
18.5097 1454.00
18.5749 1540.00
18.6401 1479.00
18.7052 1516.00
18.7704 1443.00
18.8356 1505.00
18.9008 1378.00
18.966 1518.00
19.0312 1425.00
19.0964 1396.00
19.1616 1464.00
19.2268 1419.00
19.292 1368.00
19.3572 1428.00
19.4224 1469.00
19.4876 1394.00
19.5528 1410.00
19.618 1342.00
19.6832 1401.00
19.7484 1370.00
19.8136 1477.00
19.8788 1263.00
19.944 1382.00
20.0092 1410.00
20.0744 1392.00
20.1396 1370.00
20.2048 1407.00
20.27 1372.00
20.3352 1438.00
20.4004 1275.00
20.4656 1356.00
20.5308 1382.00
20.596 1381.00
20.6612 1327.00
20.7264 1366.00
20.7916 1405.00
20.8568 1265.00
20.922 1326.00
20.9872 1244.00
21.0524 1366.00
21.1176 1363.00
21.1828 1249.00
21.248 1356.00
21.3132 1324.00
21.3784 1268.00
21.4436 1310.00
21.5088 1326.00
21.574 1267.00
21.6392 1286.00
21.7044 1330.00
21.7696 1238.00
21.8348 1243.00
21.9 1258.00
21.9652 1276.00
22.0304 1268.00
22.0956 1277.00
22.1608 1283.00
22.226 1278.00
22.2912 1268.00
22.3564 1266.00
22.4216 1201.00
22.4868 1249.00
22.552 1244.00
22.6172 1308.00
22.6824 1177.00
22.7476 1206.00
22.8128 1229.00
22.878 1241.00
22.9432 1218.00
23.0084 1152.00
23.0736 1191.00
23.1388 1163.00
23.204 1209.00
23.2692 1204.00
23.3344 1173.00
23.3996 1133.00
23.4647 1216.00
23.5299 1160.00
23.5951 1177.00
23.6603 1195.00
23.7255 1181.00
23.7907 1179.00
23.8559 1162.00
23.9211 1108.00
23.9863 1138.00
24.0515 1136.00
24.1167 1162.00
24.1819 1109.00
24.2471 1080.00
24.3123 1095.00
24.3775 1143.00
24.4427 1135.00
24.5079 1070.00
24.5731 1081.00
24.6383 1136.00
24.7035 1132.00
24.7687 1104.00
24.8339 1123.00
24.8991 1101.00
24.9643 1090.00
25.0295 1058.00
25.0947 1109.00
25.1599 1090.00
25.2251 1074.00
25.2903 1084.00
25.3555 1083.00
25.4207 1049.00
25.4859 1158.00
25.5511 1061.00
25.6163 1070.00
25.6815 1080.00
25.7467 1015.00
25.8119 1022.00
25.8771 1047.00
25.9423 1024.00
26.0075 993.00
26.0727 1021.00
26.1379 971.00
26.2031 1041.00
26.2683 1030.00
26.3335 1036.00
26.3987 1048.00
26.4639 1065.00
26.5291 1017.00
26.5943 1073.00
26.6595 1055.00
26.7247 1075.00
26.7899 1095.00
26.8551 1113.00
26.9203 1146.00
26.9855 1251.00
27.0507 1336.00
27.1159 1428.00
27.1811 1550.00
27.2463 1871.00
27.3115 2312.00
27.3767 3151.00
27.4419 4598.00
27.5071 6723.00
27.5723 8390.00
27.6375 7989.00
27.7027 5967.00
27.7679 4122.00
27.8331 3092.00
27.8983 2585.00
27.9635 2788.00
28.0287 3371.00
28.0939 4585.00
28.1591 6774.00
28.2243 9986.00
28.2894 11841.00
28.3546 10331.00
28.4198 6796.00
28.485 4236.00
28.5502 2830.00
28.6154 2028.00
28.6806 1674.00
28.7458 1465.00
28.811 1301.00
28.8762 1171.00
28.9414 1154.00
29.0066 1086.00
29.0718 1035.00
29.137 1048.00
29.2022 978.00
29.2674 974.00
29.3326 1000.00
29.3978 928.00
29.463 908.00
29.5282 980.00
29.5934 943.00
29.6586 867.00
29.7238 941.00
29.789 942.00
29.8542 890.00
29.9194 874.00
29.9846 883.00
30.0498 919.00
30.115 909.00
30.1802 876.00
30.2454 840.00
30.3106 862.00
30.3758 872.00
30.441 875.00
30.5062 829.00
30.5714 858.00
30.6366 842.00
30.7018 851.00
30.767 820.00
30.8322 813.00
30.8974 869.00
30.9626 835.00
31.0278 828.00
31.093 775.00
31.1582 792.00
31.2234 805.00
31.2886 775.00
31.3538 868.00
31.419 870.00
31.4842 884.00
31.5494 912.00
31.6146 1074.00
31.6798 1210.00
31.745 1489.00
31.8102 2032.00
31.8754 2392.00
31.9406 2443.00
32.0058 2091.00
32.071 1593.00
32.1362 1175.00
32.2014 988.00
32.2666 954.00
32.3318 836.00
32.397 872.00
32.4622 737.00
32.5274 809.00
32.5926 727.00
32.6578 745.00
32.723 725.00
32.7882 741.00
32.8534 711.00
32.9186 653.00
32.9838 708.00
33.0489 711.00
33.1141 709.00
33.1793 721.00
33.2445 678.00
33.3097 674.00
33.3749 674.00
33.4401 685.00
33.5053 719.00
33.5705 668.00
33.6357 642.00
33.7009 721.00
33.7661 710.00
33.8313 635.00
33.8965 613.00
33.9617 645.00
34.0269 619.00
34.0921 634.00
34.1573 661.00
34.2225 660.00
34.2877 644.00
34.3529 692.00
34.4181 631.00
34.4833 653.00
34.5485 623.00
34.6137 615.00
34.6789 649.00
34.7441 620.00
34.8093 676.00
34.8745 609.00
34.9397 610.00
35.0049 661.00
35.0701 627.00
35.1353 616.00
35.2005 644.00
35.2657 647.00
35.3309 657.00
35.3961 642.00
35.4613 614.00
35.5265 680.00
35.5917 599.00
35.6569 670.00
35.7221 626.00
35.7873 625.00
35.8525 624.00
35.9177 685.00
35.9829 688.00
36.0481 748.00
36.1133 781.00
36.1785 964.00
36.2437 1189.00
36.3089 1355.00
36.3741 1239.00
36.4393 990.00
36.5045 871.00
36.5697 754.00
36.6349 742.00
36.7001 649.00
36.7653 655.00
36.8305 654.00
36.8957 620.00
36.9609 574.00
37.0261 614.00
37.0913 598.00
37.1565 601.00
37.2217 557.00
37.2869 607.00
37.3521 614.00
37.4173 586.00
37.4825 590.00
37.5477 574.00
37.6129 580.00
37.6781 551.00
37.7433 579.00
37.8085 592.00
37.8736 547.00
37.9388 612.00
38.004 593.00
38.0692 519.00
38.1344 618.00
38.1996 571.00
38.2648 568.00
38.33 580.00
38.3952 619.00
38.4604 661.00
38.5256 668.00
38.5908 639.00
38.656 636.00
38.7212 687.00
38.7864 639.00
38.8516 673.00
38.9168 700.00
38.982 659.00
39.0472 703.00
39.1124 757.00
39.1776 848.00
39.2428 931.00
39.308 991.00
39.3732 1161.00
39.4384 1520.00
39.5036 1914.00
39.5688 2859.00
39.634 4068.00
39.6992 5918.00
39.7644 7189.00
39.8296 6950.00
39.8948 5470.00
39.96 3825.00
40.0252 2692.00
40.0904 1924.00
40.1556 1463.00
40.2208 1126.00
40.286 977.00
40.3512 835.00
40.4164 779.00
40.4816 734.00
40.5468 709.00
40.612 665.00
40.6772 630.00
40.7424 611.00
40.8076 624.00
40.8728 619.00
40.938 615.00
41.0032 633.00
41.0684 541.00
41.1336 598.00
41.1988 516.00
41.264 551.00
41.3292 576.00
41.3944 566.00
41.4596 600.00
41.5248 539.00
41.59 553.00
41.6552 599.00
41.7204 549.00
41.7856 541.00
41.8508 610.00
41.916 575.00
41.9812 630.00
42.0464 588.00
42.1116 649.00
42.1768 680.00
42.242 805.00
42.3072 938.00
42.3724 1191.00
42.4376 1388.00
42.5028 1616.00
42.568 1550.00
42.6332 1422.00
42.6983 1209.00
42.7635 970.00
42.8287 820.00
42.8939 775.00
42.9591 607.00
43.0243 615.00
43.0895 583.00
43.1547 584.00
43.2199 561.00
43.2851 544.00
43.3503 525.00
43.4155 523.00
43.4807 512.00
43.5459 521.00
43.6111 470.00
43.6763 541.00
43.7415 514.00
43.8067 487.00
43.8719 522.00
43.9371 504.00
44.0023 494.00
44.0675 511.00
44.1327 480.00
44.1979 500.00
44.2631 495.00
44.3283 489.00
44.3935 497.00
44.4587 475.00
44.5239 467.00
44.5891 509.00
44.6543 530.00
44.7195 477.00
44.7847 479.00
44.8499 520.00
44.9151 522.00
44.9803 499.00
45.0455 490.00
45.1107 511.00
45.1759 482.00
45.2411 522.00
45.3063 433.00
45.3715 491.00
45.4367 488.00
45.5019 525.00
45.5671 458.00
45.6323 482.00
45.6975 475.00
45.7627 476.00
45.8279 484.00
45.8931 486.00
45.9583 483.00
46.0235 520.00
46.0887 535.00
46.1539 468.00
46.2191 574.00
46.2843 486.00
46.3495 488.00
46.4147 512.00
46.4799 499.00
46.5451 518.00
46.6103 517.00
46.6755 527.00
46.7407 498.00
46.8059 542.00
46.8711 560.00
46.9363 579.00
47.0015 602.00
47.0667 665.00
47.1319 744.00
47.1971 892.00
47.2623 1158.00
47.3275 1475.00
47.3927 1639.00
47.4579 1492.00
47.523 1373.00
47.5882 1083.00
47.6534 883.00
47.7186 750.00
47.7838 800.00
47.849 719.00
47.9142 782.00
47.9794 751.00
48.0446 816.00
48.1098 897.00
48.175 1078.00
48.2402 1247.00
48.3054 1625.00
48.3706 2053.00
48.4358 2748.00
48.501 3092.00
48.5662 3243.00
48.6314 3129.00
48.6966 3320.00
48.7618 3682.00
48.827 4552.00
48.8922 5537.00
48.9574 5741.00
49.0226 5298.00
49.0878 4352.00
49.153 3152.00
49.2182 2266.00
49.2834 1753.00
49.3486 1376.00
49.4138 1130.00
49.479 924.00
49.5442 864.00
49.6094 748.00
49.6746 675.00
49.7398 637.00
49.805 712.00
49.8702 718.00
49.9354 722.00
50.0006 738.00
50.0658 886.00
50.131 1095.00
50.1962 1256.00
50.2614 1239.00
50.3266 1093.00
50.3918 921.00
50.457 788.00
50.5222 715.00
50.5874 560.00
50.6526 526.00
50.7178 550.00
50.783 524.00
50.8482 547.00
50.9134 460.00
50.9786 467.00
51.0438 469.00
51.109 472.00
51.1742 398.00
51.2394 442.00
51.3046 467.00
51.3698 433.00
51.435 393.00
51.5002 408.00
51.5654 425.00
51.6306 453.00
51.6958 459.00
51.761 434.00
51.8262 433.00
51.8914 388.00
51.9566 407.00
52.0218 397.00
52.087 410.00
52.1522 445.00
52.2174 432.00
52.2826 418.00
52.3477 429.00
52.4129 419.00
52.4781 452.00
52.5433 410.00
52.6085 435.00
52.6737 411.00
52.7389 449.00
52.8041 394.00
52.8693 458.00
52.9345 392.00
52.9997 409.00
53.0649 420.00
53.1301 426.00
53.1953 408.00
53.2605 416.00
53.3257 382.00
53.3909 391.00
53.4561 423.00
53.5213 390.00
53.5865 404.00
53.6517 406.00
53.7169 424.00
53.7821 389.00
53.8473 418.00
53.9125 386.00
53.9777 416.00
54.0429 440.00
54.1081 377.00
54.1733 403.00
54.2385 393.00
54.3037 403.00
54.3689 423.00
54.4341 412.00
54.4993 413.00
54.5645 422.00
54.6297 432.00
54.6949 393.00
54.7601 432.00
54.8253 417.00
54.8905 438.00
54.9557 461.00
55.0209 491.00
55.0861 500.00
55.1513 558.00
55.2165 647.00
55.2817 751.00
55.3469 905.00
55.4121 1243.00
55.4773 1629.00
55.5425 1896.00
55.6077 1907.00
55.6729 1713.00
55.7381 1468.00
55.8033 1154.00
55.8685 931.00
55.9337 751.00
55.9989 684.00
56.0641 587.00
56.1293 560.00
56.1945 642.00
56.2597 627.00
56.3249 724.00
56.3901 849.00
56.4553 912.00
56.5205 1047.00
56.5857 1113.00
56.6509 1001.00
56.7161 921.00
56.7813 798.00
56.8465 721.00
56.9117 635.00
56.9769 539.00
57.042 449.00
57.1073 462.00
57.1724 474.00
57.2376 447.00
57.3028 442.00
57.368 400.00
57.4332 404.00
57.4984 446.00
57.5636 398.00
57.6288 425.00
57.694 462.00
57.7592 449.00
57.8244 514.00
57.8896 519.00
57.9548 577.00
58.02 714.00
58.0852 783.00
58.1504 798.00
58.2156 751.00
58.2808 644.00
58.346 577.00
58.4112 551.00
58.4764 498.00
58.5416 433.00
58.6068 467.00
58.672 450.00
58.7372 478.00
58.8024 516.00
58.8676 581.00
58.9328 639.00
58.998 694.00
59.0632 681.00
59.1284 771.00
59.1936 671.00
59.2588 600.00
59.324 580.00
59.3892 483.00
59.4544 449.00
59.5196 390.00
59.5848 412.00
59.65 408.00
59.7152 392.00
59.7804 355.00
59.8456 362.00
59.9108 337.00
59.976 359.00
60.0412 333.00
60.1064 328.00
60.1716 364.00
60.2368 336.00
60.302 377.00
60.3672 318.00
60.4324 381.00
60.4976 337.00
60.5628 374.00
60.628 357.00
60.6932 366.00
60.7584 319.00
60.8236 363.00
60.8888 356.00
60.954 346.00
61.0192 367.00
61.0844 329.00
61.1496 346.00
61.2148 350.00
61.28 372.00
61.3452 313.00
61.4104 349.00
61.4756 321.00
61.5408 332.00
61.606 347.00
61.6712 337.00
61.7364 352.00
61.8016 363.00
61.8667 341.00
61.932 322.00
61.9971 331.00
62.0623 343.00
62.1275 342.00
62.1927 346.00
62.2579 361.00
62.3231 386.00
62.3883 333.00
62.4535 315.00
62.5187 365.00
62.5839 353.00
62.6491 342.00
62.7143 367.00
62.7795 369.00
62.8447 333.00
62.9099 353.00
62.9751 365.00
63.0403 325.00
63.1055 358.00
63.1707 377.00
63.2359 378.00
63.3011 376.00
63.3663 417.00
63.4315 358.00
63.4967 378.00
63.5619 388.00
63.6271 412.00
63.6923 451.00
63.7575 474.00
63.8227 497.00
63.8879 593.00
63.9531 668.00
64.0183 833.00
64.0835 1011.00
64.1487 1153.00
64.2139 1376.00
64.2791 1440.00
64.3443 1437.00
64.4095 1298.00
64.4747 1218.00
64.5399 1016.00
64.6051 821.00
64.6703 729.00
64.7355 615.00
64.8007 610.00
64.8659 541.00
64.9311 519.00
64.9963 491.00
65.0615 507.00
65.1267 580.00
65.1919 675.00
65.2571 723.00
65.3223 795.00
65.3875 728.00
65.4527 735.00
65.5179 704.00
65.5831 602.00
65.6483 616.00
65.7135 532.00
65.7787 450.00
65.8439 436.00
65.9091 420.00
65.9743 394.00
66.0395 409.00
66.1047 451.00
66.1699 482.00
66.2351 504.00
66.3003 511.00
66.3655 454.00
66.4307 460.00
66.4959 447.00
66.561 420.00
66.6263 431.00
66.6915 368.00
66.7566 347.00
66.8218 357.00
66.887 343.00
66.9522 335.00
67.0174 359.00
67.0826 340.00
67.1478 368.00
67.213 359.00
67.2782 343.00
67.3434 351.00
67.4086 302.00
67.4738 318.00
67.539 347.00
67.6042 345.00
67.6694 353.00
67.7346 321.00
67.7998 330.00
67.865 335.00
67.9302 284.00
67.9954 320.00
68.0606 316.00
68.1258 311.00
68.191 347.00
68.2562 360.00
68.3214 364.00
68.3866 287.00
68.4518 328.00
68.517 353.00
68.5822 344.00
68.6474 360.00
68.7126 348.00
68.7778 314.00
68.843 335.00
68.9082 344.00
68.9734 345.00
69.0386 365.00
69.1038 351.00
69.169 404.00
69.2342 360.00
69.2994 429.00
69.3646 410.00
69.4298 442.00
69.495 484.00
69.5602 550.00
69.6254 620.00
69.6906 758.00
69.7558 833.00
69.821 996.00
69.8862 1144.00
69.9514 1177.00
70.0166 1138.00
70.0818 1115.00
70.147 1007.00
70.2122 870.00
70.2774 722.00
70.3426 621.00
70.4078 544.00
70.473 551.00
70.5382 457.00
70.6034 456.00
70.6686 415.00
70.7338 438.00
70.799 449.00
70.8642 446.00
70.9294 448.00
70.9946 510.00
71.0598 568.00
71.125 623.00
71.1902 604.00
71.2554 591.00
71.3205 590.00
71.3858 550.00
71.451 527.00
71.5162 473.00
71.5813 435.00
71.6465 395.00
71.7117 367.00
71.7769 378.00
71.8421 358.00
71.9073 373.00
71.9725 352.00
72.0377 329.00
72.1029 341.00
72.1681 327.00
72.2333 359.00
72.2985 338.00
72.3637 350.00
72.4289 369.00
72.4941 327.00
72.5593 354.00
72.6245 327.00
72.6897 338.00
72.7549 344.00
72.8201 393.00
72.8853 394.00
72.9505 409.00
73.0157 419.00
73.0809 440.00
73.1461 485.00
73.2113 463.00
73.2765 450.00
73.3417 412.00
73.4069 379.00
73.4721 392.00
73.5373 366.00
73.6025 355.00
73.6677 357.00
73.7329 357.00
73.7981 372.00
73.8633 336.00
73.9285 328.00
73.9937 323.00
74.0589 326.00
74.1241 315.00
74.1893 328.00
74.2545 319.00
74.3197 306.00
74.3849 328.00
74.4501 337.00
74.5153 317.00
74.5805 331.00
74.6457 341.00
74.7109 278.00
74.7761 331.00
74.8413 306.00
74.9065 336.00
74.9717 341.00
75.0369 344.00
75.1021 357.00
75.1673 351.00
75.2325 345.00
75.2977 348.00
75.3629 346.00
75.4281 348.00
75.4933 387.00
75.5585 367.00
75.6237 403.00
75.6889 418.00
75.7541 454.00
75.8193 528.00
75.8845 546.00
75.9497 670.00
76.0149 708.00
76.0801 760.00
76.1452 756.00
76.2104 734.00
76.2756 727.00
76.3409 774.00
76.406 774.00
76.4712 859.00
76.5364 814.00
76.6016 832.00
76.6668 858.00
76.732 837.00
76.7972 818.00
76.8624 768.00
76.9276 702.00
76.9928 687.00
77.058 734.00
77.1232 751.00
77.1884 768.00
77.2536 901.00
77.3188 931.00
77.384 1111.00
77.4492 1135.00
77.5144 1191.00
77.5796 1279.00
77.6448 1319.00
77.71 1478.00
77.7752 1391.00
77.8404 1346.00
77.9056 1250.00
77.9708 1123.00
78.036 1079.00
78.1012 911.00
78.1664 831.00
78.2316 722.00
78.2968 623.00
78.362 591.00
78.4272 565.00
78.4924 580.00
78.5576 600.00
78.6228 613.00
78.688 580.00
78.7532 611.00
78.8184 614.00
78.8836 542.00
78.9488 546.00
79.014 505.00
79.0792 498.00
79.1444 476.00
79.2096 466.00
79.2748 434.00
79.34 386.00
79.4052 339.00
79.4704 334.00
79.5356 355.00
79.6008 352.00
79.666 305.00
79.7312 349.00
79.7964 315.00
79.8616 317.00
79.9268 323.00
79.992 324.00
80.0572 323.00
80.1224 337.00
80.1876 315.00
80.2528 324.00
80.318 300.00
80.3832 343.00
80.4484 327.00
80.5136 321.00
80.5788 332.00
80.644 317.00
80.7092 308.00
80.7744 311.00
80.8396 320.00
80.9048 323.00
80.9699 299.00
81.0351 281.00
81.1003 312.00
81.1655 309.00
81.2307 289.00
81.2959 287.00
81.3611 294.00
81.4263 283.00
81.4915 302.00
81.5567 307.00
81.6219 303.00
81.6871 302.00
81.7523 343.00
81.8175 304.00
81.8827 319.00
81.9479 330.00
82.0131 324.00
82.0783 405.00
82.1435 389.00
82.2087 455.00
82.2739 426.00
82.3391 465.00
82.4043 523.00
82.4695 561.00
82.5347 624.00
82.5999 604.00
82.6651 639.00
82.7303 546.00
82.7955 534.00
82.8607 500.00
82.9259 471.00
82.9911 412.00
83.0563 381.00
83.1215 371.00
83.1867 353.00
83.2519 347.00
83.3171 312.00
83.3823 326.00
83.4475 323.00
83.5127 331.00
83.5779 309.00
83.6431 275.00
83.7083 306.00
83.7735 263.00
83.8387 326.00
83.9039 322.00
83.9691 292.00
84.0343 319.00
84.0995 291.00
84.1647 296.00
84.2299 284.00
84.2951 276.00
84.3603 300.00
84.4255 313.00
84.4907 291.00
84.5559 265.00
84.6211 268.00
84.6863 307.00
84.7515 324.00
84.8167 305.00
84.8819 305.00
84.9471 361.00
85.0123 390.00
85.0775 345.00
85.1427 351.00
85.2079 406.00
85.2731 371.00
85.3383 394.00
85.4035 371.00
85.4687 373.00
85.5339 374.00
85.5991 317.00
85.6643 331.00
85.7295 343.00
85.7946 348.00
85.8598 349.00
85.925 341.00
85.9903 337.00
86.0554 343.00
86.1206 334.00
86.1858 359.00
86.251 339.00
86.3162 323.00
86.3814 320.00
86.4466 312.00
86.5118 323.00
86.577 267.00
86.6422 327.00
86.7074 307.00
86.7726 283.00
86.8378 296.00
86.903 299.00
86.9682 304.00
87.0334 303.00
87.0986 282.00
87.1638 309.00
87.229 292.00
87.2942 279.00
87.3594 316.00
87.4246 233.00
87.4898 275.00
87.555 306.00
87.6202 285.00
87.6854 288.00
87.7506 274.00
87.8158 291.00
87.881 315.00
87.9462 346.00
88.0114 327.00
88.0766 298.00
88.1418 327.00
88.207 341.00
88.2722 318.00
88.3374 338.00
88.4026 335.00
88.4678 390.00
88.533 420.00
88.5982 455.00
88.6634 538.00
88.7286 578.00
88.7938 620.00
88.859 694.00
88.9242 739.00
88.9894 732.00
89.0546 740.00
89.1198 717.00
89.185 699.00
89.2502 602.00
89.3154 602.00
89.3806 468.00
89.4458 457.00
89.511 451.00
89.5762 409.00
89.6414 438.00
89.7066 374.00
89.7718 386.00
89.837 375.00
89.9022 347.00
89.9674 411.00
90.0326 438.00
90.0978 455.00
90.163 486.00
90.2282 489.00
90.2934 498.00
90.3586 563.00
90.4238 540.00
90.489 538.00
90.5542 561.00
90.6193 567.00
90.6845 540.00
90.7497 514.00
90.8149 561.00
90.8801 529.00
90.9453 500.00
91.0105 461.00
91.0757 423.00
91.1409 418.00
91.2061 369.00
91.2713 391.00
91.3365 391.00
91.4017 423.00
91.4669 432.00
91.5321 415.00
91.5973 415.00
91.6625 421.00
91.7277 443.00
91.7929 423.00
91.8581 438.00
91.9233 402.00
91.9885 366.00
92.0537 366.00
92.1189 386.00
92.1841 318.00
92.2493 352.00
92.3145 385.00
92.3797 349.00
92.4449 345.00
92.5101 323.00
92.5753 364.00
92.6405 290.00
92.7057 309.00
92.7709 292.00
92.8361 302.00
92.9013 304.00
92.9665 340.00
93.0317 304.00
93.0969 291.00
93.1621 305.00
93.2273 286.00
93.2925 310.00
93.3577 297.00
93.4229 307.00
93.4881 291.00
93.5533 321.00
93.6185 318.00
93.6837 278.00
93.7489 299.00
93.8141 262.00
93.8793 294.00
93.9445 284.00
94.0097 270.00
94.0749 306.00
94.1401 289.00
94.2053 284.00
94.2705 270.00
94.3357 321.00
94.4009 284.00
94.4661 283.00
94.5313 298.00
94.5965 297.00
94.6617 291.00
94.7269 330.00
94.7921 297.00
94.8573 297.00
94.9225 338.00
94.9877 343.00
95.0529 316.00
95.1181 363.00
95.1833 398.00
95.2485 381.00
95.3137 429.00
95.3789 475.00
95.444 453.00
95.5092 536.00
95.5744 620.00
95.6396 619.00
95.7048 695.00
95.77 726.00
95.8352 693.00
95.9004 746.00
95.9656 707.00
96.0308 710.00
96.096 671.00
96.1612 649.00
96.2264 586.00
96.2916 578.00
96.3568 575.00
96.422 528.00
96.4872 525.00
96.5524 570.00
96.6176 552.00
96.6828 548.00
96.748 525.00
96.8132 587.00
96.8784 630.00
96.9436 591.00
97.0088 641.00
97.074 641.00
97.1392 551.00
97.2044 548.00
97.2696 568.00
97.3348 506.00
97.4 495.00
97.4652 478.00
97.5304 444.00
97.5956 384.00
97.6608 395.00
97.726 392.00
97.7912 343.00
97.8564 352.00
97.9216 326.00
97.9868 337.00
98.052 331.00
98.1172 327.00
98.1824 323.00
98.2476 323.00
98.3128 365.00
98.378 288.00
98.4432 363.00
98.5084 328.00
98.5736 316.00
98.6388 373.00
98.704 363.00
98.7692 312.00
98.8344 308.00
98.8996 318.00
98.9648 300.00
99.03 305.00
99.0952 283.00
99.1604 322.00
99.2256 323.00
99.2908 295.00
99.356 322.00
99.4212 306.00
99.4864 322.00
99.5516 286.00
99.6168 305.00
99.682 293.00
99.7472 296.00
99.8124 324.00
99.8776 282.00
99.9428 286.00
100.008 288.00
100.073 345.00
100.095 290.00