File: data/xrd_creation/results/PG_2649-1.xy
9.903433 2592.00
9.968632 2552.00
10.0338 2498.00
10.099 2520.00
10.1642 2376.00
10.2294 2456.00
10.2946 2454.00
10.3598 2423.00
10.425 2357.00
10.4902 2346.00
10.5554 2366.00
10.6206 2296.00
10.6858 2256.00
10.751 2120.00
10.8162 2331.00
10.8814 2233.00
10.9466 2255.00
11.0118 2249.00
11.077 2200.00
11.1422 2150.00
11.2074 2186.00
11.2726 2092.00
11.3378 2110.00
11.403 2120.00
11.4682 2112.00
11.5334 2111.00
11.5986 2072.00
11.6638 2057.00
11.729 2135.00
11.7942 2041.00
11.8594 1991.00
11.9246 1994.00
11.9898 1943.00
12.055 1955.00
12.1202 2005.00
12.1854 1897.00
12.2506 1909.00
12.3158 1949.00
12.381 1876.00
12.4462 1929.00
12.5114 1849.00
12.5766 1912.00
12.6418 1860.00
12.707 1882.00
12.7722 1822.00
12.8374 1878.00
12.9026 1816.00
12.9678 1745.00
13.033 1862.00
13.0982 1781.00
13.1634 1800.00
13.2286 1764.00
13.2938 1808.00
13.359 1768.00
13.4242 1767.00
13.4894 1737.00
13.5546 1640.00
13.6198 1693.00
13.685 1692.00
13.7502 1680.00
13.8154 1629.00
13.8805 1676.00
13.9457 1652.00
14.0109 1654.00
14.0761 1622.00
14.1413 1703.00
14.2065 1717.00
14.2717 1683.00
14.3369 1503.00
14.4021 1637.00
14.4673 1630.00
14.5325 1601.00
14.5977 1594.00
14.6629 1631.00
14.7281 1635.00
14.7933 1637.00
14.8585 1570.00
14.9237 1599.00
14.9889 1585.00
15.0541 1561.00
15.1193 1630.00
15.1845 1665.00
15.2497 1645.00
15.3149 1817.00
15.3801 1726.00
15.4453 1866.00
15.5105 2053.00
15.5757 2226.00
15.6409 2648.00
15.7061 3582.00
15.7713 2429.00
15.8365 1613.00
15.9017 1613.00
15.9669 1584.00
16.0321 1533.00
16.0973 1519.00
16.1625 1504.00
16.2277 1530.00
16.2929 1412.00
16.3581 1542.00
16.4233 1385.00
16.4885 1521.00
16.5537 1528.00
16.6189 1446.00
16.6841 1484.00
16.7493 1368.00
16.8145 1496.00
16.8797 1451.00
16.9449 1416.00
17.0101 1470.00
17.0753 1424.00
17.1405 1436.00
17.2057 1414.00
17.2709 1488.00
17.3361 1378.00
17.4013 1384.00
17.4665 1388.00
17.5317 1372.00
17.5969 1398.00
17.6621 1369.00
17.7273 1432.00
17.7925 1394.00
17.8577 1391.00
17.9229 1412.00
17.9881 1461.00
18.0533 1443.00
18.1185 1517.00
18.1837 1571.00
18.2489 1697.00
18.3141 1874.00
18.3793 2120.00
18.4445 2355.00
18.5097 3117.00
18.5749 4368.00
18.6401 7523.00
18.7052 8962.00
18.7704 3350.00
18.8356 1653.00
18.9008 1458.00
18.966 1461.00
19.0312 1442.00
19.0964 1327.00
19.1616 1315.00
19.2268 1339.00
19.292 1262.00
19.3572 1271.00
19.4224 1304.00
19.4876 1298.00
19.5528 1333.00
19.618 1280.00
19.6832 1307.00
19.7484 1258.00
19.8136 1240.00
19.8788 1212.00
19.944 1229.00
20.0092 1246.00
20.0744 1294.00
20.1396 1254.00
20.2048 1243.00
20.27 1271.00
20.3352 1206.00
20.4004 1223.00
20.4656 1232.00
20.5308 1202.00
20.596 1209.00
20.6612 1174.00
20.7264 1215.00
20.7916 1199.00
20.8568 1181.00
20.922 1160.00
20.9872 1167.00
21.0524 1265.00
21.1176 1145.00
21.1828 1164.00
21.248 1189.00
21.3132 1164.00
21.3784 1173.00
21.4436 1196.00
21.5088 1284.00
21.574 1173.00
21.6392 1179.00
21.7044 1181.00
21.7696 1203.00
21.8348 1150.00
21.9 1200.00
21.9652 1163.00
22.0304 1157.00
22.0956 1137.00
22.1608 1167.00
22.226 1166.00
22.2912 1187.00
22.3564 1075.00
22.4216 1103.00
22.4868 1157.00
22.552 1119.00
22.6172 1153.00
22.6824 1036.00
22.7476 1088.00
22.8128 1092.00
22.878 1093.00
22.9432 1074.00
23.0084 1163.00
23.0736 1127.00
23.1388 1171.00
23.204 1250.00
23.2692 1312.00
23.3344 1312.00
23.3996 1671.00
23.4647 1819.00
23.5299 1668.00
23.5951 1860.00
23.6603 2157.00
23.7255 3088.00
23.7907 5093.00
23.8559 9275.00
23.9211 9061.00
23.9863 3870.00
24.0515 1892.00
24.1167 1985.00
24.1819 2488.00
24.2471 3805.00
24.3123 6748.00
24.3775 8070.00
24.4427 3981.00
24.5079 1706.00
24.5731 1424.00
24.6383 1628.00
24.7035 1681.00
24.7687 1324.00
24.8339 1163.00
24.8991 1078.00
24.9643 1041.00
25.0295 1134.00
25.0947 1066.00
25.1599 1032.00
25.2251 1094.00
25.2903 1070.00
25.3555 1088.00
25.4207 1098.00
25.4859 1108.00
25.5511 1043.00
25.6163 1031.00
25.6815 1022.00
25.7467 1060.00
25.8119 1066.00
25.8771 1055.00
25.9423 988.00
26.0075 986.00
26.0727 1016.00
26.1379 984.00
26.2031 1035.00
26.2683 1037.00
26.3335 963.00
26.3987 1021.00
26.4639 1016.00
26.5291 1012.00
26.5943 955.00
26.6595 1061.00
26.7247 1020.00
26.7899 1048.00
26.8551 973.00
26.9203 999.00
26.9855 1006.00
27.0507 1011.00
27.1159 1040.00
27.1811 1088.00
27.2463 930.00
27.3115 926.00
27.3767 955.00
27.4419 1017.00
27.5071 917.00
27.5723 1006.00
27.6375 1031.00
27.7027 970.00
27.7679 946.00
27.8331 941.00
27.8983 968.00
27.9635 960.00
28.0287 931.00
28.0939 888.00
28.1591 937.00
28.2243 989.00
28.2894 976.00
28.3546 888.00
28.4198 878.00
28.485 975.00
28.5502 897.00
28.6154 946.00
28.6806 929.00
28.7458 954.00
28.811 948.00
28.8762 961.00
28.9414 976.00
29.0066 1018.00
29.0718 999.00
29.137 1089.00
29.2022 1056.00
29.2674 1080.00
29.3326 1042.00
29.3978 1003.00
29.463 1098.00
29.5282 1070.00
29.5934 1241.00
29.6586 1327.00
29.7238 1492.00
29.789 1712.00
29.8542 2153.00
29.9194 3265.00
29.9846 6017.00
30.0498 13294.00
30.115 20848.00
30.1802 12370.00
30.2454 4402.00
30.3106 2457.00
30.3758 2892.00
30.441 4710.00
30.5062 9639.00
30.5714 18610.00
30.6366 14601.00
30.7018 6735.00
30.767 2000.00
30.8322 1472.00
30.8974 1299.00
30.9626 1249.00
31.0278 1202.00
31.093 1188.00
31.1582 1397.00
31.2234 1785.00
31.2886 3026.00
31.3538 5001.00
31.419 3699.00
31.4842 2001.00
31.5494 1165.00
31.6146 1002.00
31.6798 1036.00
31.745 1008.00
31.8102 925.00
31.8754 956.00
31.9406 963.00
32.0058 952.00
32.071 878.00
32.1362 936.00
32.2014 985.00
32.2666 930.00
32.3318 922.00
32.397 894.00
32.4622 908.00
32.5274 838.00
32.5926 894.00
32.6578 958.00
32.723 941.00
32.7882 917.00
32.8534 939.00
32.9186 926.00
32.9838 883.00
33.0489 885.00
33.1141 915.00
33.1793 848.00
33.2445 924.00
33.3097 874.00
33.3749 886.00
33.4401 912.00
33.5053 976.00
33.5705 1105.00
33.6357 978.00
33.7009 916.00
33.7661 907.00
33.8313 964.00
33.8965 960.00
33.9617 936.00
34.0269 940.00
34.0921 902.00
34.1573 875.00
34.2225 921.00
34.2877 902.00
34.3529 870.00
34.4181 980.00
34.4833 1102.00
34.5485 1012.00
34.6137 875.00
34.6789 861.00
34.7441 832.00
34.8093 802.00
34.8745 874.00
34.9397 859.00
35.0049 823.00
35.0701 894.00
35.1353 887.00
35.2005 812.00
35.2657 873.00
35.3309 858.00
35.3961 902.00
35.4613 854.00
35.5265 887.00
35.5917 881.00
35.6569 960.00
35.7221 948.00
35.7873 964.00
35.8525 1030.00
35.9177 1075.00
35.9829 1303.00
36.0481 1548.00
36.1133 2572.00
36.1785 5566.00
36.2437 10567.00
36.3089 9664.00
36.3741 5694.00
36.4393 2368.00
36.5045 1653.00
36.5697 1985.00
36.6349 2163.00
36.7001 1606.00
36.7653 1180.00
36.8305 940.00
36.8957 955.00
36.9609 902.00
37.0261 836.00
37.0913 902.00
37.1565 854.00
37.2217 964.00
37.2869 1034.00
37.3521 1296.00
37.4173 2106.00
37.4825 3852.00
37.5477 3743.00
37.6129 2533.00
37.6781 1289.00
37.7433 843.00
37.8085 865.00
37.8736 873.00
37.9388 861.00
38.004 756.00
38.0692 786.00
38.1344 803.00
38.1996 809.00
38.2648 780.00
38.33 831.00
38.3952 744.00
38.4604 841.00
38.5256 778.00
38.5908 791.00
38.656 795.00
38.7212 758.00
38.7864 772.00
38.8516 858.00
38.9168 717.00
38.982 790.00
39.0472 756.00
39.1124 763.00
39.1776 728.00
39.2428 803.00
39.308 707.00
39.3732 807.00
39.4384 787.00
39.5036 899.00
39.5688 1062.00
39.634 953.00
39.6992 1002.00
39.7644 835.00
39.8296 810.00
39.8948 780.00
39.96 798.00
40.0252 796.00
40.0904 860.00
40.1556 807.00
40.2208 794.00
40.286 890.00
40.3512 965.00
40.4164 1204.00
40.4816 1920.00
40.5468 3361.00
40.612 3376.00
40.6772 2626.00
40.7424 1839.00
40.8076 1781.00
40.8728 1402.00
40.938 1351.00
41.0032 1326.00
41.0684 2194.00
41.1336 4078.00
41.1988 4503.00
41.264 3444.00
41.3292 2329.00
41.3944 1245.00
41.4596 988.00
41.5248 845.00
41.59 852.00
41.6552 766.00
41.7204 825.00
41.7856 753.00
41.8508 807.00
41.916 737.00
41.9812 732.00
42.0464 842.00
42.1116 831.00
42.1768 866.00
42.242 855.00
42.3072 769.00
42.3724 766.00
42.4376 773.00
42.5028 748.00
42.568 732.00
42.6332 729.00
42.6983 748.00
42.7635 746.00
42.8287 779.00
42.8939 718.00
42.9591 748.00
43.0243 742.00
43.0895 781.00
43.1547 749.00
43.2199 725.00
43.2851 772.00
43.3503 782.00
43.4155 780.00
43.4807 872.00
43.5459 1114.00
43.6111 1799.00
43.6763 1881.00
43.7415 1439.00
43.8067 1136.00
43.8719 863.00
43.9371 802.00
44.0023 773.00
44.0675 823.00
44.1327 873.00
44.1979 1069.00
44.2631 1541.00
44.3283 2526.00
44.3935 2376.00
44.4587 2724.00
44.5239 1946.00
44.5891 1449.00
44.6543 1013.00
44.7195 800.00
44.7847 874.00
44.8499 826.00
44.9151 909.00
44.9803 919.00
45.0455 1243.00
45.1107 2063.00
45.1759 2203.00
45.2411 1727.00
45.3063 1362.00
45.3715 920.00
45.4367 771.00
45.5019 727.00
45.5671 739.00
45.6323 725.00
45.6975 723.00
45.7627 769.00
45.8279 746.00
45.8931 749.00
45.9583 718.00
46.0235 706.00
46.0887 738.00
46.1539 703.00
46.2191 768.00
46.2843 756.00
46.3495 768.00
46.4147 730.00
46.4799 736.00
46.5451 689.00
46.6103 702.00
46.6755 749.00
46.7407 750.00
46.8059 720.00
46.8711 718.00
46.9363 728.00
47.0015 707.00
47.0667 725.00
47.1319 722.00
47.1971 726.00
47.2623 760.00
47.3275 759.00
47.3927 785.00
47.4579 821.00
47.523 991.00
47.5882 1338.00
47.6534 1397.00
47.7186 1149.00
47.7838 1057.00
47.849 836.00
47.9142 729.00
47.9794 754.00
48.0446 769.00
48.1098 819.00
48.175 817.00
48.2402 896.00
48.3054 969.00
48.3706 1236.00
48.4358 2572.00
48.501 3770.00
48.5662 2541.00
48.6314 2336.00
48.6966 1267.00
48.7618 888.00
48.827 799.00
48.8922 786.00
48.9574 801.00
49.0226 755.00
49.0878 795.00
49.153 818.00
49.2182 838.00
49.2834 876.00
49.3486 1115.00
49.4138 1809.00
49.479 2989.00
49.5442 2787.00
49.6094 2250.00
49.6746 1670.00
49.7398 984.00
49.805 781.00
49.8702 788.00
49.9354 791.00
50.0006 769.00
50.0658 822.00
50.131 836.00
50.1962 883.00
50.2614 810.00
50.3266 852.00
50.3918 773.00
50.457 800.00
50.5222 792.00
50.5874 805.00
50.6526 769.00
50.7178 730.00
50.783 841.00
50.8482 803.00
50.9134 822.00
50.9786 867.00
51.0438 880.00
51.109 847.00
51.1742 1017.00
51.2394 1097.00
51.3046 1293.00
51.3698 2277.00
51.435 4584.00
51.5002 4857.00
51.5654 3390.00
51.6306 2880.00
51.6958 1499.00
51.761 999.00
51.8262 938.00
51.8914 1032.00
51.9566 1268.00
52.0218 1257.00
52.087 1154.00
52.1522 1221.00
52.2174 1401.00
52.2826 2388.00
52.3477 3616.00
52.4129 3395.00
52.4781 2684.00
52.5433 2704.00
52.6085 2700.00
52.6737 3645.00
52.7389 3886.00
52.8041 2571.00
52.8693 2281.00
52.9345 1290.00
52.9997 1105.00
53.0649 1056.00
53.1301 1201.00
53.1953 1874.00
53.2605 3476.00
53.3257 4172.00
53.3909 3258.00
53.4561 3175.00
53.5213 3589.00
53.5865 3603.00
53.6517 2439.00
53.7169 2246.00
53.7821 1416.00
53.8473 957.00
53.9125 822.00
53.9777 795.00
54.0429 785.00
54.1081 766.00
54.1733 752.00
54.2385 738.00
54.3037 770.00
54.3689 840.00
54.4341 816.00
54.4993 786.00
54.5645 862.00
54.6297 919.00
54.6949 1087.00
54.7601 1253.00
54.8253 1193.00
54.8905 1375.00
54.9557 1323.00
55.0209 1238.00
55.0861 1124.00
55.1513 938.00
55.2165 828.00
55.2817 814.00
55.3469 747.00
55.4121 762.00
55.4773 736.00
55.5425 796.00
55.6077 791.00
55.6729 737.00
55.7381 752.00
55.8033 769.00
55.8685 778.00
55.9337 789.00
55.9989 833.00
56.0641 1002.00
56.1293 969.00
56.1945 874.00
56.2597 865.00
56.3249 830.00
56.3901 787.00
56.4553 743.00
56.5205 779.00
56.5857 673.00
56.6509 737.00
56.7161 717.00
56.7813 710.00
56.8465 704.00
56.9117 704.00
56.9769 721.00
57.042 741.00
57.1073 734.00
57.1724 710.00
57.2376 745.00
57.3028 769.00
57.368 832.00
57.4332 956.00
57.4984 1024.00
57.5636 864.00
57.6288 899.00
57.694 854.00
57.7592 933.00
57.8244 1373.00
57.8896 1445.00
57.9548 1093.00
58.02 1094.00
58.0852 870.00
58.1504 761.00
58.2156 696.00
58.2808 710.00
58.346 746.00
58.4112 719.00
58.4764 718.00
58.5416 735.00
58.6068 660.00
58.672 766.00
58.7372 694.00
58.8024 711.00
58.8676 636.00
58.9328 701.00
58.998 705.00
59.0632 724.00
59.1284 667.00
59.1936 698.00
59.2588 661.00
59.324 703.00
59.3892 781.00
59.4544 745.00
59.5196 766.00
59.5848 682.00
59.65 796.00
59.7152 770.00
59.7804 925.00
59.8456 1022.00
59.9108 1008.00
59.976 870.00
60.0412 925.00
60.1064 730.00
60.1716 780.00
60.2368 798.00
60.302 774.00
60.3672 798.00
60.4324 770.00
60.4976 860.00
60.5628 931.00
60.628 941.00
60.6932 1272.00
60.7584 2185.00
60.8236 3631.00
60.8888 2760.00
60.954 2258.00
61.0192 2312.00
61.0844 1958.00
61.1496 1415.00
61.2148 1217.00
61.28 1235.00
61.3452 1036.00
61.4104 933.00
61.4756 972.00
61.5408 1232.00
61.606 2302.00
61.6712 2707.00
61.7364 1862.00
61.8016 1989.00
61.8667 1891.00
61.932 1727.00
61.9971 1699.00
62.0623 1675.00
62.1275 2115.00
62.1927 1867.00
62.2579 1383.00
62.3231 1400.00
62.3883 1429.00
62.4535 1616.00
62.5187 2299.00
62.5839 2598.00
62.6491 1882.00
62.7143 1731.00
62.7795 1472.00
62.8447 1091.00
62.9099 894.00
62.9751 887.00
63.0403 900.00
63.1055 1122.00
63.1707 1636.00
63.2359 2025.00
63.3011 2596.00
63.3663 3425.00
63.4315 2453.00
63.4967 1964.00
63.5619 1865.00
63.6271 1276.00
63.6923 913.00
63.7575 897.00
63.8227 911.00
63.8879 887.00
63.9531 949.00
64.0183 1414.00
64.0835 2416.00
64.1487 2345.00
64.2139 1594.00
64.2791 1911.00
64.3443 1501.00
64.4095 1087.00
64.4747 1110.00
64.5399 1562.00
64.6051 2644.00
64.6703 2803.00
64.7355 2406.00
64.8007 2902.00
64.8659 3611.00
64.9311 2704.00
64.9963 1905.00
65.0615 2026.00
65.1267 1368.00
65.1919 965.00
65.2571 802.00
65.3223 718.00
65.3875 778.00
65.4527 739.00
65.5179 705.00
65.5831 725.00
65.6483 762.00
65.7135 713.00
65.7787 685.00
65.8439 675.00
65.9091 725.00
65.9743 679.00
66.0395 703.00
66.1047 685.00
66.1699 753.00
66.2351 705.00
66.3003 718.00
66.3655 748.00
66.4307 728.00
66.4959 733.00
66.561 743.00
66.6263 738.00
66.6915 899.00
66.7566 887.00
66.8218 827.00
66.887 869.00
66.9522 827.00
67.0174 743.00
67.0826 732.00
67.1478 732.00
67.213 686.00
67.2782 681.00
67.3434 742.00
67.4086 699.00
67.4738 814.00
67.539 853.00
67.6042 1005.00
67.6694 1231.00
67.7346 1125.00
67.7998 1158.00
67.865 1649.00
67.9302 2375.00
67.9954 2201.00
68.0606 1578.00
68.1258 1727.00
68.191 1560.00
68.2562 1052.00
68.3214 911.00
68.3866 1003.00
68.4518 1111.00
68.517 950.00
68.5822 904.00
68.6474 922.00
68.7126 857.00
68.7778 867.00
68.843 839.00
68.9082 875.00
68.9734 876.00
69.0386 831.00
69.1038 857.00
69.169 917.00
69.2342 1068.00
69.2994 1233.00
69.3646 1170.00
69.4298 945.00
69.495 1009.00
69.5602 867.00
69.6254 758.00
69.6906 713.00
69.7558 711.00
69.821 732.00
69.8862 790.00
69.9514 870.00
70.0166 1121.00
70.0818 1221.00
70.147 1069.00
70.2122 1013.00
70.2774 1016.00
70.3426 1151.00
70.4078 1224.00
70.473 1072.00
70.5382 919.00
70.6034 990.00
70.6686 929.00
70.7338 860.00
70.799 898.00
70.8642 1027.00
70.9294 1408.00
70.9946 1451.00
71.0598 1336.00
71.125 1511.00
71.1902 1485.00
71.2554 1212.00
71.3205 1070.00
71.3858 1033.00
71.451 866.00
71.5162 985.00
71.5813 1089.00
71.6465 916.00
71.7117 847.00
71.7769 887.00
71.8421 824.00
71.9073 768.00
71.9725 711.00
72.0377 710.00
72.1029 665.00
72.1681 724.00
72.2333 731.00
72.2985 735.00
72.3637 757.00
72.4289 735.00
72.4941 785.00
72.5593 936.00
72.6245 855.00
72.6897 832.00
72.7549 790.00
72.8201 844.00
72.8853 729.00
72.9505 729.00
73.0157 660.00
73.0809 717.00
73.1461 854.00
73.2113 1041.00
73.2765 1074.00
73.3417 886.00
73.4069 910.00
73.4721 901.00
73.5373 803.00
73.6025 700.00
73.6677 678.00
73.7329 642.00
73.7981 683.00
73.8633 663.00
73.9285 738.00
73.9937 678.00
74.0589 709.00
74.1241 792.00
74.1893 921.00
74.2545 1023.00
74.3197 919.00
74.3849 892.00
74.4501 869.00
74.5153 798.00
74.5805 770.00
74.6457 716.00
74.7109 680.00
74.7761 662.00
74.8413 701.00
74.9065 696.00
74.9717 661.00
75.0369 638.00
75.1021 685.00
75.1673 673.00
75.2325 693.00
75.2977 648.00
75.3629 678.00
75.4281 673.00
75.4933 691.00
75.5585 670.00
75.6237 673.00
75.6889 701.00
75.7541 679.00
75.8193 747.00
75.8845 652.00
75.9497 748.00
76.0149 769.00
76.0801 675.00
76.1452 731.00
76.2104 748.00
76.2756 840.00
76.3409 987.00
76.406 1433.00
76.4712 1474.00
76.5364 1269.00
76.6016 1192.00
76.6668 1150.00
76.732 1006.00
76.7972 905.00
76.8624 802.00
76.9276 729.00
76.9928 740.00
77.058 770.00
77.1232 758.00
77.1884 792.00
77.2536 803.00
77.3188 854.00
77.384 1020.00
77.4492 1249.00
77.5144 1532.00
77.5796 1520.00
77.6448 1201.00
77.71 1126.00
77.7752 1197.00
77.8404 1097.00
77.9056 1066.00
77.9708 1071.00
78.036 947.00
78.1012 881.00
78.1664 905.00
78.2316 857.00
78.2968 805.00
78.362 777.00
78.4272 799.00
78.4924 806.00
78.5576 817.00
78.6228 752.00
78.688 782.00
78.7532 775.00
78.8184 886.00
78.8836 907.00
78.9488 950.00
79.014 856.00
79.0792 878.00
79.1444 936.00
79.2096 898.00
79.2748 927.00
79.34 898.00
79.4052 1051.00
79.4704 1230.00
79.5356 1406.00
79.6008 1157.00
79.666 1115.00
79.7312 1412.00
79.7964 1751.00
79.8616 2052.00
79.9268 1687.00
79.992 1346.00
80.0572 1390.00
80.1224 1479.00
80.1876 1214.00
80.2528 1297.00
80.318 1475.00
80.3832 1335.00
80.4484 1194.00
80.5136 1203.00
80.5788 1146.00
80.644 1022.00
80.7092 906.00
80.7744 807.00
80.8396 735.00
80.9048 774.00
80.9699 813.00
81.0351 864.00
81.1003 739.00
81.1655 756.00
81.2307 810.00
81.2959 743.00
81.3611 707.00
81.4263 718.00
81.4915 747.00
81.5567 742.00
81.6219 748.00
81.6871 760.00
81.7523 712.00
81.8175 719.00
81.8827 854.00
81.9479 894.00
82.0131 821.00
82.0783 773.00
82.1435 773.00
82.2087 802.00
82.2739 760.00
82.3391 654.00
82.4043 674.00
82.4695 693.00
82.5347 680.00
82.5999 668.00
82.6651 657.00
82.7303 682.00
82.7955 661.00
82.8607 705.00
82.9259 692.00
82.9911 695.00
83.0563 665.00
83.1215 687.00
83.1867 711.00
83.2519 692.00
83.3171 677.00
83.3823 686.00
83.4475 692.00
83.5127 703.00
83.5779 687.00
83.6431 805.00
83.7083 776.00
83.7735 841.00
83.8387 935.00
83.9039 967.00
83.9691 883.00
84.0343 830.00
84.0995 867.00
84.1647 893.00
84.2299 879.00
84.2951 817.00
84.3603 852.00
84.4255 856.00
84.4907 880.00
84.5559 1039.00
84.6211 1282.00
84.6863 1434.00
84.7515 1461.00
84.8167 1284.00
84.8819 1217.00
84.9471 1160.00
85.0123 1123.00
85.0775 947.00
85.1427 791.00
85.2079 698.00
85.2731 700.00
85.3383 700.00
85.4035 703.00
85.4687 730.00
85.5339 700.00
85.5991 698.00
85.6643 649.00
85.7295 709.00
85.7946 700.00
85.8598 664.00
85.925 704.00
85.9903 695.00
86.0554 754.00
86.1206 732.00
86.1858 677.00
86.251 731.00
86.3162 783.00
86.3814 743.00
86.4466 788.00
86.5118 745.00
86.577 767.00
86.6422 812.00
86.7074 1000.00
86.7726 1364.00
86.8378 1330.00
86.903 1250.00
86.9682 1331.00
87.0334 1475.00
87.0986 1706.00
87.1638 1771.00
87.229 1528.00
87.2942 1404.00
87.3594 1217.00
87.4246 1174.00
87.4898 1159.00
87.555 1075.00
87.6202 1162.00
87.6854 1229.00
87.7506 1526.00
87.8158 1671.00
87.881 1461.00
87.9462 1220.00
88.0114 1198.00
88.0766 1267.00
88.1418 1174.00
88.207 970.00
88.2722 833.00
88.3374 793.00
88.4026 764.00
88.4678 734.00
88.533 776.00
88.5982 752.00
88.6634 746.00
88.7286 757.00
88.7938 781.00
88.859 831.00
88.9242 829.00
88.9894 904.00
89.0546 1057.00
89.1198 1313.00
89.185 1487.00
89.2502 1470.00
89.3154 1339.00
89.3806 1381.00
89.4458 1372.00
89.511 1411.00
89.5762 1303.00
89.6414 1184.00
89.7066 1168.00
89.7718 1182.00
89.837 1109.00
89.9022 1164.00
89.9674 1284.00
90.0326 1276.00
90.0978 1241.00
90.163 1250.00
90.2282 1447.00
90.2934 1525.00
90.3586 1253.00
90.4238 1042.00
90.489 978.00
90.5542 1072.00
90.6193 928.00
90.6845 868.00
90.7497 916.00
90.8149 842.00
90.8801 954.00
90.9453 918.00
91.0105 1019.00
91.0757 877.00
91.1409 881.00
91.2061 900.00
91.2713 915.00
91.3365 925.00
91.4017 1093.00
91.4669 994.00
91.5321 883.00
91.5973 819.00
91.6625 865.00
91.7277 830.00
91.7929 777.00
91.8581 758.00
91.9233 710.00
91.9885 687.00
92.0537 715.00
92.1189 728.00
92.1841 688.00
92.2493 687.00
92.3145 706.00
92.3797 711.00
92.4449 695.00
92.5101 691.00
92.5753 724.00
92.6405 724.00
92.7057 753.00
92.7709 836.00
92.8361 840.00
92.9013 896.00
92.9665 856.00
93.0317 810.00
93.0969 860.00
93.1621 863.00
93.2273 790.00
93.2925 732.00
93.3577 797.00
93.4229 905.00
93.4881 891.00
93.5533 888.00
93.6185 841.00
93.6837 809.00
93.7489 809.00
93.8141 755.00
93.8793 845.00
93.9445 761.00
94.0097 706.00
94.0749 660.00
94.1401 782.00
94.2053 742.00
94.2705 783.00
94.3357 812.00
94.4009 803.00
94.4661 769.00
94.5313 831.00
94.5965 813.00
94.6617 787.00
94.7269 828.00
94.7921 847.00
94.8573 833.00
94.9225 1004.00
94.9877 1096.00
95.0529 1193.00
95.1181 1138.00
95.1833 1012.00
95.2485 1055.00
95.3137 1102.00
95.3789 1142.00
95.444 1061.00
95.5092 1008.00
95.5744 851.00
95.6396 884.00
95.7048 885.00
95.77 890.00
95.8352 867.00
95.9004 830.00
95.9656 807.00
96.0308 759.00
96.096 785.00
96.1612 739.00
96.2264 747.00
96.2916 706.00
96.3568 713.00
96.422 698.00
96.4872 736.00
96.5524 729.00
96.6176 710.00
96.6828 732.00
96.748 712.00
96.8132 697.00
96.8784 696.00
96.9436 721.00
97.0088 724.00
97.074 738.00
97.1392 766.00
97.2044 827.00
97.2696 1046.00
97.3348 1261.00
97.4 1394.00
97.4652 1307.00
97.5304 1168.00
97.5956 1134.00
97.6608 1351.00
97.726 1534.00
97.7912 1639.00
97.8564 1339.00
97.9216 1134.00
97.9868 1071.00
98.052 1268.00
98.1172 1230.00
98.1824 1307.00
98.2476 1316.00
98.3128 1546.00
98.378 1418.00
98.4432 1325.00
98.5084 1191.00
98.5736 1110.00
98.6388 1087.00
98.704 1109.00
98.7692 1046.00
98.8344 896.00
98.8996 890.00
98.9648 797.00
99.03 808.00
99.0952 730.00
99.1604 708.00
99.2256 717.00
99.2908 711.00
99.356 728.00
99.4212 719.00
99.4864 754.00
99.5516 822.00
99.6168 864.00
99.682 909.00
99.7472 811.00
99.8124 808.00
99.8776 768.00
99.9428 788.00
100.008 792.00
100.073 710.00
100.095 741.00