File: data/xrd_creation/results/TRI_196.xy
10.0094 2356.00
10.0746 2202.00
10.1398 2196.00
10.205 2177.00
10.2702 2207.00
10.3354 2220.00
10.4006 2089.00
10.4658 2200.00
10.531 2046.00
10.5962 2132.00
10.6614 2101.00
10.7266 2077.00
10.7918 2009.00
10.857 2038.00
10.9222 1940.00
10.9874 1913.00
11.0526 1967.00
11.1178 1859.00
11.183 1890.00
11.2482 1894.00
11.3134 1820.00
11.3786 1921.00
11.4438 1812.00
11.509 1896.00
11.5742 1793.00
11.6394 1711.00
11.7046 1753.00
11.7698 1738.00
11.835 1700.00
11.9002 1716.00
11.9654 1705.00
12.0306 1663.00
12.0958 1686.00
12.161 1643.00
12.2262 1648.00
12.2914 1560.00
12.3566 1679.00
12.4218 1696.00
12.487 1613.00
12.5522 1626.00
12.6174 1505.00
12.6826 1569.00
12.7478 1566.00
12.813 1552.00
12.8782 1503.00
12.9434 1474.00
13.0086 1442.00
13.0738 1421.00
13.139 1437.00
13.2042 1411.00
13.2694 1460.00
13.3346 1398.00
13.3998 1472.00
13.465 1421.00
13.5302 1423.00
13.5954 1353.00
13.6606 1342.00
13.7258 1343.00
13.791 1340.00
13.8562 1367.00
13.9214 1336.00
13.9865 1339.00
14.0517 1334.00
14.1169 1268.00
14.1821 1256.00
14.2473 1302.00
14.3125 1342.00
14.3777 1355.00
14.4429 1275.00
14.5081 1198.00
14.5733 1269.00
14.6385 1205.00
14.7037 1242.00
14.7689 1216.00
14.8341 1146.00
14.8993 1244.00
14.9645 1185.00
15.0297 1168.00
15.0949 1239.00
15.1601 1166.00
15.2253 1244.00
15.2905 1197.00
15.3557 1119.00
15.4209 1201.00
15.4861 1158.00
15.5513 1126.00
15.6165 1147.00
15.6817 1191.00
15.7469 1158.00
15.8121 1163.00
15.8773 1105.00
15.9425 1090.00
16.0077 1149.00
16.0729 1143.00
16.1381 1076.00
16.2033 1100.00
16.2685 1132.00
16.3337 1170.00
16.3989 1114.00
16.4641 1091.00
16.5293 1050.00
16.5945 1073.00
16.6597 1059.00
16.7249 1060.00
16.7901 1092.00
16.8553 1044.00
16.9205 1042.00
16.9857 1088.00
17.0509 1059.00
17.1161 1018.00
17.1813 1043.00
17.2465 1068.00
17.3117 1004.00
17.3769 1091.00
17.4421 1059.00
17.5073 1044.00
17.5725 1060.00
17.6377 987.00
17.7029 1017.00
17.7681 1068.00
17.8333 1000.00
17.8985 970.00
17.9637 1008.00
18.0289 1048.00
18.0941 1060.00
18.1593 1080.00
18.2245 1111.00
18.2897 1045.00
18.3549 1071.00
18.4201 1067.00
18.4853 996.00
18.5505 943.00
18.6157 933.00
18.6809 954.00
18.7461 919.00
18.8112 947.00
18.8764 957.00
18.9416 915.00
19.0068 935.00
19.072 883.00
19.1372 915.00
19.2024 951.00
19.2676 940.00
19.3328 1000.00
19.398 996.00
19.4632 920.00
19.5284 1000.00
19.5936 936.00
19.6588 925.00
19.724 957.00
19.7892 918.00
19.8544 897.00
19.9196 899.00
19.9848 854.00
20.05 819.00
20.1152 863.00
20.1804 822.00
20.2456 817.00
20.3108 793.00
20.376 852.00
20.4412 819.00
20.5064 838.00
20.5716 842.00
20.6368 754.00
20.702 815.00
20.7672 766.00
20.8324 745.00
20.8976 815.00
20.9628 752.00
21.028 845.00
21.0932 813.00
21.1584 831.00
21.2236 726.00
21.2888 824.00
21.354 799.00
21.4192 813.00
21.4844 778.00
21.5496 755.00
21.6148 807.00
21.68 819.00
21.7452 785.00
21.8104 787.00
21.8756 778.00
21.9408 708.00
22.006 740.00
22.0712 725.00
22.1364 720.00
22.2016 712.00
22.2668 737.00
22.332 765.00
22.3972 692.00
22.4624 733.00
22.5276 695.00
22.5928 773.00
22.658 694.00
22.7232 768.00
22.7884 737.00
22.8536 747.00
22.9188 745.00
22.984 716.00
23.0492 727.00
23.1144 740.00
23.1796 713.00
23.2448 694.00
23.31 693.00
23.3752 702.00
23.4404 696.00
23.5056 677.00
23.5708 694.00
23.6359 656.00
23.7011 675.00
23.7663 648.00
23.8315 636.00
23.8967 665.00
23.9619 637.00
24.0271 678.00
24.0923 646.00
24.1575 664.00
24.2227 698.00
24.2879 636.00
24.3531 648.00
24.4183 648.00
24.4835 610.00
24.5487 629.00
24.6139 627.00
24.6791 673.00
24.7443 643.00
24.8095 646.00
24.8747 737.00
24.9399 736.00
25.0051 807.00
25.0703 799.00
25.1355 805.00
25.2007 748.00
25.2659 694.00
25.3311 668.00
25.3963 667.00
25.4615 606.00
25.5267 666.00
25.5919 641.00
25.6571 590.00
25.7223 685.00
25.7875 610.00
25.8527 637.00
25.9179 694.00
25.9831 704.00
26.0483 701.00
26.1135 687.00
26.1787 718.00
26.2439 675.00
26.3091 708.00
26.3743 693.00
26.4395 696.00
26.5047 709.00
26.5699 577.00
26.6351 596.00
26.7003 595.00
26.7655 551.00
26.8307 628.00
26.8959 604.00
26.9611 569.00
27.0263 594.00
27.0915 589.00
27.1567 587.00
27.2219 589.00
27.2871 514.00
27.3523 581.00
27.4175 558.00
27.4827 602.00
27.5479 586.00
27.6131 638.00
27.6783 631.00
27.7435 670.00
27.8087 681.00
27.8739 801.00
27.9391 852.00
28.0043 814.00
28.0695 762.00
28.1347 753.00
28.1999 728.00
28.2651 673.00
28.3303 637.00
28.3955 622.00
28.4606 577.00
28.5258 585.00
28.591 554.00
28.6562 628.00
28.7214 582.00
28.7866 554.00
28.8518 564.00
28.917 605.00
28.9822 585.00
29.0474 560.00
29.1126 588.00
29.1778 538.00
29.243 565.00
29.3082 518.00
29.3734 565.00
29.4386 516.00
29.5038 496.00
29.569 530.00
29.6342 541.00
29.6994 535.00
29.7646 529.00
29.8298 521.00
29.895 551.00
29.9602 594.00
30.0254 578.00
30.0906 605.00
30.1558 651.00
30.221 646.00
30.2862 646.00
30.3514 628.00
30.4166 616.00
30.4818 533.00
30.547 563.00
30.6122 507.00
30.6774 504.00
30.7426 520.00
30.8078 530.00
30.873 497.00
30.9382 520.00
31.0034 532.00
31.0686 522.00
31.1338 535.00
31.199 537.00
31.2642 514.00
31.3294 502.00
31.3946 526.00
31.4598 526.00
31.525 525.00
31.5902 552.00
31.6554 499.00
31.7206 497.00
31.7858 500.00
31.851 474.00
31.9162 448.00
31.9814 504.00
32.0466 491.00
32.1118 458.00
32.177 445.00
32.2422 458.00
32.3074 441.00
32.3726 457.00
32.4378 440.00
32.503 470.00
32.5682 427.00
32.6334 435.00
32.6986 440.00
32.7638 427.00
32.829 452.00
32.8942 504.00
32.9594 470.00
33.0246 463.00
33.0898 437.00
33.1549 452.00
33.2201 433.00
33.2853 397.00
33.3505 431.00
33.4157 439.00
33.4809 408.00
33.5461 485.00
33.6113 444.00
33.6765 476.00
33.7417 465.00
33.8069 482.00
33.8721 443.00
33.9373 420.00
34.0025 458.00
34.0677 408.00
34.1329 418.00
34.1981 438.00
34.2633 417.00
34.3285 433.00
34.3937 430.00
34.4589 396.00
34.5241 407.00
34.5893 405.00
34.6545 411.00
34.7197 384.00
34.7849 390.00
34.8501 366.00
34.9153 389.00
34.9805 442.00
35.0457 407.00
35.1109 368.00
35.1761 395.00
35.2413 405.00
35.3065 424.00
35.3717 417.00
35.4369 446.00
35.5021 409.00
35.5673 416.00
35.6325 347.00
35.6977 416.00
35.7629 379.00
35.8281 395.00
35.8933 408.00
35.9585 419.00
36.0237 421.00
36.0889 419.00
36.1541 369.00
36.2193 383.00
36.2845 367.00
36.3497 375.00
36.4149 357.00
36.4801 377.00
36.5453 378.00
36.6105 409.00
36.6757 396.00
36.7409 420.00
36.8061 421.00
36.8713 423.00
36.9365 455.00
37.0017 410.00
37.0669 409.00
37.1321 374.00
37.1973 414.00
37.2625 337.00
37.3277 342.00
37.3929 331.00
37.4581 340.00
37.5233 332.00
37.5885 338.00
37.6537 332.00
37.7189 370.00
37.7841 365.00
37.8493 342.00
37.9145 341.00
37.9796 316.00
38.0448 352.00
38.11 344.00
38.1752 388.00
38.2404 315.00
38.3056 364.00
38.3708 349.00
38.436 350.00
38.5012 340.00
38.5664 329.00
38.6316 359.00
38.6968 348.00
38.762 341.00
38.8272 343.00
38.8924 339.00
38.9576 345.00
39.0228 318.00
39.088 348.00
39.1532 310.00
39.2184 320.00
39.2836 316.00
39.3488 332.00
39.414 368.00
39.4792 350.00
39.5444 306.00
39.6096 348.00
39.6748 382.00
39.74 333.00
39.8052 380.00
39.8704 341.00
39.9356 339.00
40.0008 339.00
40.066 291.00
40.1312 289.00
40.1964 301.00
40.2616 303.00
40.3268 308.00
40.392 299.00
40.4572 298.00
40.5224 279.00
40.5876 334.00
40.6528 291.00
40.718 314.00
40.7832 295.00
40.8484 310.00
40.9136 302.00
40.9788 334.00
41.044 325.00
41.1092 307.00
41.1744 289.00
41.2396 280.00
41.3048 311.00
41.37 321.00
41.4352 328.00
41.5004 285.00
41.5656 351.00
41.6308 280.00
41.696 330.00
41.7612 311.00
41.8264 309.00
41.8916 296.00
41.9568 286.00
42.022 314.00
42.0872 322.00
42.1524 322.00
42.2176 293.00
42.2828 285.00
42.348 296.00
42.4132 289.00
42.4784 289.00
42.5436 303.00
42.6088 300.00
42.6739 324.00
42.7392 286.00
42.8043 312.00
42.8695 303.00
42.9347 315.00
42.9999 303.00
43.0651 283.00
43.1303 272.00
43.1955 286.00
43.2607 279.00
43.3259 299.00
43.3911 283.00
43.4563 322.00
43.5215 272.00
43.5867 312.00
43.6519 294.00
43.7171 281.00
43.7823 312.00
43.8475 274.00
43.9127 276.00
43.9779 271.00
44.0431 307.00
44.1083 278.00
44.1735 271.00
44.2387 266.00
44.3039 294.00
44.3691 308.00
44.4343 307.00
44.4995 269.00
44.5647 280.00
44.6299 276.00
44.6951 266.00
44.7603 274.00
44.8255 279.00
44.8907 267.00
44.9559 239.00
45.0211 286.00
45.0863 270.00
45.1515 271.00
45.2167 266.00
45.2819 280.00
45.3471 259.00
45.4123 275.00
45.4775 257.00
45.5427 246.00
45.6079 232.00
45.6731 275.00
45.7383 283.00
45.8035 281.00
45.8687 342.00
45.9339 295.00
45.9991 271.00
46.0643 310.00
46.1295 275.00
46.1947 273.00
46.2599 207.00
46.3251 248.00
46.3903 247.00
46.4555 289.00
46.5207 278.00
46.5859 278.00
46.6511 237.00
46.7163 267.00
46.7815 263.00
46.8467 219.00
46.9119 265.00
46.9771 247.00
47.0423 273.00
47.1075 288.00
47.1727 289.00
47.2379 246.00
47.3031 303.00
47.3683 298.00
47.4335 281.00
47.4986 262.00
47.5639 275.00
47.629 268.00
47.6942 283.00
47.7594 271.00
47.8246 295.00
47.8898 220.00
47.955 258.00
48.0202 224.00
48.0854 244.00
48.1506 237.00
48.2158 263.00
48.281 276.00
48.3462 238.00
48.4114 267.00
48.4766 277.00
48.5418 273.00
48.607 249.00
48.6722 271.00
48.7374 261.00
48.8026 272.00
48.8678 296.00
48.933 245.00
48.9982 264.00
49.0634 275.00
49.1286 238.00
49.1938 218.00
49.259 281.00
49.3242 267.00
49.3894 262.00
49.4546 269.00
49.5198 287.00
49.585 293.00
49.6502 262.00
49.7154 277.00
49.7806 287.00
49.8458 234.00
49.911 273.00
49.9762 241.00
50.0414 264.00
50.1066 249.00
50.1718 269.00
50.237 271.00
50.3022 280.00
50.3674 261.00
50.4326 270.00
50.4978 229.00
50.563 234.00
50.6282 262.00
50.6934 268.00
50.7586 248.00
50.8238 268.00
50.889 257.00
50.9542 257.00
51.0194 235.00
51.0846 228.00
51.1498 217.00
51.215 236.00
51.2802 225.00
51.3454 246.00
51.4106 217.00
51.4758 230.00
51.541 243.00
51.6062 290.00
51.6714 305.00
51.7366 281.00
51.8018 282.00
51.867 292.00
51.9322 280.00
51.9974 246.00
52.0626 265.00
52.1278 259.00
52.193 242.00
52.2582 248.00
52.3233 245.00
52.3886 261.00
52.4537 225.00
52.5189 229.00
52.5841 236.00
52.6493 232.00
52.7145 227.00
52.7797 224.00
52.8449 268.00
52.9101 242.00
52.9753 232.00
53.0405 210.00
53.1057 227.00
53.1709 215.00
53.2361 220.00
53.3013 242.00
53.3665 244.00
53.4317 230.00
53.4969 256.00
53.5621 223.00
53.6273 220.00
53.6925 247.00
53.7577 227.00
53.8229 219.00
53.8881 220.00
53.9533 222.00
54.0185 245.00
54.0837 244.00
54.1489 208.00
54.2141 237.00
54.2793 225.00
54.3445 234.00
54.4097 210.00
54.4749 222.00
54.5401 245.00
54.6053 241.00
54.6705 232.00
54.7357 214.00
54.8009 241.00
54.8661 217.00
54.9313 238.00
54.9965 199.00
55.0617 220.00
55.1269 213.00
55.1921 177.00
55.2573 201.00
55.3225 224.00
55.3877 207.00
55.4529 220.00
55.5181 227.00
55.5833 248.00
55.6485 239.00
55.7137 243.00
55.7789 225.00
55.8441 231.00
55.9093 210.00
55.9745 228.00
56.0397 223.00
56.1049 204.00
56.1701 203.00
56.2353 205.00
56.3005 238.00
56.3657 224.00
56.4309 223.00
56.4961 207.00
56.5613 225.00
56.6265 194.00
56.6917 188.00
56.7569 216.00
56.8221 175.00
56.8873 168.00
56.9525 194.00
57.0177 192.00
57.0829 202.00
57.148 216.00
57.2132 225.00
57.2784 182.00
57.3436 213.00
57.4088 208.00
57.474 227.00
57.5392 198.00
57.6044 200.00
57.6696 226.00
57.7348 210.00
57.8 236.00
57.8652 213.00
57.9304 224.00
57.9956 210.00
58.0608 243.00
58.126 227.00
58.1912 219.00
58.2564 226.00
58.3216 207.00
58.3868 188.00
58.452 218.00
58.5172 179.00
58.5824 194.00
58.6476 190.00
58.7128 191.00
58.778 215.00
58.8432 182.00
58.9084 226.00
58.9736 193.00
59.0388 185.00
59.104 185.00
59.1692 230.00
59.2344 189.00
59.2996 213.00
59.3648 187.00
59.43 195.00
59.4952 195.00
59.5604 188.00
59.6256 213.00
59.6908 186.00
59.756 218.00
59.8212 201.00
59.8864 204.00
59.9516 212.00
60.0168 195.00
60.082 184.00
60.1472 181.00
60.2124 206.00
60.2776 216.00
60.3428 229.00
60.408 218.00
60.4732 206.00
60.5384 189.00
60.6036 199.00
60.6688 178.00
60.734 201.00
60.7992 193.00
60.8644 200.00
60.9296 199.00
60.9948 200.00
61.06 210.00
61.1252 195.00
61.1904 177.00
61.2556 188.00
61.3208 178.00
61.386 180.00
61.4512 199.00
61.5164 196.00
61.5816 180.00
61.6468 199.00
61.712 183.00
61.7772 176.00
61.8424 192.00
61.9076 179.00
61.9727 188.00
62.0379 190.00
62.1031 227.00
62.1683 204.00
62.2335 218.00
62.2987 204.00
62.3639 191.00
62.4291 210.00
62.4943 193.00
62.5595 164.00
62.6247 202.00
62.6899 188.00
62.7551 197.00
62.8203 199.00
62.8855 209.00
62.9507 184.00
63.0159 185.00
63.0811 192.00
63.1463 229.00
63.2115 184.00
63.2767 183.00
63.3419 168.00
63.4071 183.00
63.4723 194.00
63.5375 210.00
63.6027 176.00
63.6679 203.00
63.7331 206.00
63.7983 183.00
63.8635 158.00
63.9287 198.00
63.9939 196.00
64.0591 178.00
64.1243 182.00
64.1895 209.00
64.2547 193.00
64.3199 212.00
64.3851 173.00
64.4503 196.00
64.5155 182.00
64.5807 178.00
64.6459 174.00
64.7111 201.00
64.7763 183.00
64.8415 185.00
64.9067 196.00
64.9719 188.00
65.0371 193.00
65.1023 174.00
65.1675 185.00
65.2327 186.00
65.2979 192.00
65.3631 200.00
65.4283 173.00
65.4935 198.00
65.5587 193.00
65.6239 188.00
65.6891 164.00
65.7543 161.00
65.8195 169.00
65.8847 163.00
65.9499 224.00
66.0151 167.00
66.0803 177.00
66.1455 174.00
66.2107 156.00
66.2759 154.00
66.3411 194.00
66.4063 178.00
66.4715 173.00
66.5367 167.00
66.6019 188.00
66.6671 184.00
66.7322 219.00
66.7974 142.00
66.8626 190.00
66.9278 148.00
66.993 167.00
67.0582 140.00
67.1234 190.00
67.1886 150.00
67.2538 174.00
67.319 160.00
67.3842 163.00
67.4494 168.00
67.5146 184.00
67.5798 180.00
67.645 154.00
67.7102 162.00
67.7754 187.00
67.8406 172.00
67.9058 158.00
67.971 162.00
68.0362 220.00
68.1014 183.00
68.1666 175.00
68.2318 194.00
68.297 200.00
68.3622 171.00
68.4274 182.00
68.4926 174.00
68.5578 208.00
68.623 155.00
68.6882 197.00
68.7534 159.00
68.8186 166.00
68.8838 173.00
68.949 173.00
69.0142 210.00
69.0794 172.00
69.1446 176.00
69.2098 166.00
69.275 162.00
69.3402 144.00
69.4054 161.00
69.4706 180.00
69.5358 187.00
69.601 183.00
69.6662 188.00
69.7314 175.00
69.7966 193.00
69.8618 183.00
69.927 180.00
69.9922 185.00
70.0574 187.00
70.1226 156.00
70.1878 180.00
70.253 184.00
70.3182 191.00
70.3834 194.00
70.4486 173.00
70.5138 175.00
70.579 190.00
70.6442 180.00
70.7094 175.00
70.7746 187.00
70.8398 178.00
70.905 192.00
70.9702 191.00
71.0354 192.00
71.1006 183.00
71.1658 187.00
71.231 195.00
71.2962 182.00
71.3614 188.00
71.4266 184.00
71.4918 178.00
71.5569 194.00
71.6221 154.00
71.6873 164.00
71.7525 179.00
71.8177 206.00
71.8829 184.00
71.9481 162.00
72.0133 169.00
72.0785 157.00
72.1437 179.00
72.2089 184.00
72.2741 165.00
72.3393 161.00
72.4045 176.00
72.4697 178.00
72.5349 189.00
72.6001 168.00
72.6653 166.00
72.7305 192.00
72.7957 172.00
72.8609 181.00
72.9261 171.00
72.9913 174.00
73.0565 198.00
73.1217 178.00
73.1869 158.00
73.2521 169.00
73.3173 185.00
73.3825 160.00
73.4477 165.00
73.5129 176.00
73.5781 179.00
73.6433 173.00
73.7085 187.00
73.7737 194.00
73.8389 187.00
73.9041 170.00
73.9693 177.00
74.0345 183.00
74.0997 178.00
74.1649 181.00
74.2301 164.00
74.2953 167.00
74.3605 181.00
74.4257 193.00
74.4909 166.00
74.5561 210.00
74.6213 197.00
74.6865 177.00
74.7517 178.00
74.8169 185.00
74.8821 198.00
74.9473 211.00
75.0125 208.00
75.0777 166.00
75.1429 184.00
75.2081 202.00
75.2733 178.00
75.3385 192.00
75.4037 182.00
75.4689 172.00
75.5341 192.00
75.5993 181.00
75.6645 182.00
75.7297 166.00
75.7949 180.00
75.8601 205.00
75.9253 199.00
75.9905 185.00
76.0557 188.00
76.1209 202.00
76.186 170.00
76.2513 186.00
76.3165 191.00
76.3816 193.00
76.4468 184.00
76.512 181.00
76.5772 174.00
76.6424 168.00
76.7076 183.00
76.7728 157.00
76.838 188.00
76.9032 185.00
76.9684 224.00
77.0336 170.00
77.0988 188.00
77.164 163.00
77.2292 199.00
77.2944 200.00
77.3596 205.00
77.4248 202.00
77.49 195.00
77.5552 152.00
77.6204 179.00
77.6856 167.00
77.7508 198.00
77.816 191.00
77.8812 203.00
77.9464 186.00
78.0116 196.00
78.0768 225.00
78.142 178.00
78.2072 204.00
78.2724 196.00
78.3376 202.00
78.4028 203.00
78.468 207.00
78.5332 179.00
78.5984 213.00
78.6636 209.00
78.7288 224.00
78.794 219.00
78.8592 198.00
78.9244 211.00
78.9896 176.00
79.0548 166.00
79.12 184.00
79.1852 192.00
79.2504 179.00
79.3156 193.00
79.3808 177.00
79.446 184.00
79.5112 210.00
79.5764 220.00
79.6416 192.00
79.7068 197.00
79.772 202.00
79.8372 205.00
79.9024 197.00
79.9676 224.00
80.0328 218.00
80.098 195.00
80.1632 206.00
80.2284 215.00
80.2936 212.00
80.3588 222.00
80.424 176.00
80.4892 201.00
80.5544 190.00
80.6196 202.00
80.6848 206.00
80.75 195.00
80.8152 228.00
80.8804 204.00
80.9456 203.00
81.0108 178.00
81.076 205.00
81.1412 202.00
81.2063 221.00
81.2715 193.00
81.3367 209.00
81.4019 194.00
81.4671 189.00
81.5323 203.00
81.5975 186.00
81.6627 216.00
81.7279 198.00
81.7931 202.00
81.8583 237.00
81.9235 205.00
81.9887 204.00
82.0539 180.00
82.1191 249.00
82.1843 186.00
82.2495 195.00
82.3147 220.00
82.3799 203.00
82.4451 229.00
82.5103 198.00
82.5755 180.00
82.6407 200.00
82.7059 199.00
82.7711 184.00
82.8363 185.00
82.9015 186.00
82.9667 213.00
83.0319 215.00
83.0971 176.00
83.1623 174.00
83.2275 211.00
83.2927 193.00
83.3579 227.00
83.4231 212.00
83.4883 214.00
83.5535 229.00
83.6187 215.00
83.6839 183.00
83.7491 203.00
83.8143 194.00
83.8795 209.00
83.9447 200.00
84.0099 206.00
84.0751 191.00
84.1403 199.00
84.2055 206.00
84.2707 205.00
84.3359 180.00
84.4011 227.00
84.4663 175.00
84.5315 211.00
84.5967 208.00
84.6619 191.00
84.7271 208.00
84.7923 176.00
84.8575 171.00
84.9227 187.00
84.9879 182.00
85.0531 195.00
85.1183 198.00
85.1835 189.00
85.2487 185.00
85.3139 172.00
85.3791 202.00
85.4443 191.00
85.5095 162.00
85.5747 181.00
85.6399 188.00
85.7051 196.00
85.7703 164.00
85.8354 217.00
85.9006 185.00
85.9659 179.00
86.031 203.00
86.0962 199.00
86.1614 194.00
86.2266 184.00
86.2918 193.00
86.357 168.00
86.4222 176.00
86.4874 179.00
86.5526 163.00
86.6178 169.00
86.683 159.00
86.7482 170.00
86.8134 196.00
86.8786 182.00
86.9438 208.00
87.009 181.00
87.0742 197.00
87.1394 174.00
87.2046 177.00
87.2698 194.00
87.335 170.00
87.4002 163.00
87.4654 184.00
87.5306 152.00
87.5958 150.00
87.661 147.00
87.7262 176.00
87.7914 200.00
87.8566 200.00
87.9218 157.00
87.987 163.00
88.0522 173.00
88.1174 179.00
88.1826 188.00
88.2478 183.00
88.313 187.00
88.3782 168.00
88.4434 154.00
88.5086 188.00
88.5738 184.00
88.639 177.00
88.7042 175.00
88.7694 175.00
88.8346 161.00
88.8998 197.00
88.965 160.00
89.0302 182.00
89.0954 192.00
89.1606 190.00
89.2258 177.00
89.291 175.00
89.3562 172.00
89.4214 156.00
89.4866 197.00
89.5518 176.00
89.617 187.00
89.6822 170.00
89.7474 172.00
89.8126 168.00
89.8778 156.00
89.943 159.00
90.0082 158.00
90.0734 187.00
90.1386 192.00
90.2038 170.00
90.269 151.00
90.3342 190.00
90.3994 170.00
90.4646 174.00
90.5298 152.00
90.595 175.00
90.6601 167.00
90.7253 169.00
90.7905 179.00
90.8557 165.00
90.9209 172.00
90.9861 175.00
91.0513 186.00
91.1165 186.00
91.1817 185.00
91.2469 153.00
91.3121 161.00
91.3773 174.00
91.4425 182.00
91.5077 147.00
91.5729 177.00
91.6381 164.00
91.7033 161.00
91.7685 182.00
91.8337 158.00
91.8989 152.00
91.9641 164.00
92.0293 195.00
92.0945 158.00
92.1597 159.00
92.2249 166.00
92.2901 177.00
92.3553 169.00
92.4205 178.00
92.4857 188.00
92.5509 168.00
92.6161 158.00
92.6813 184.00
92.7465 148.00
92.8117 167.00
92.8769 177.00
92.9421 164.00
93.0073 168.00
93.0725 178.00
93.1377 151.00
93.2029 150.00
93.2681 164.00
93.3333 169.00
93.3985 164.00
93.4637 182.00
93.5289 139.00
93.5941 167.00
93.6593 164.00
93.7245 166.00
93.7897 154.00
93.8549 181.00
93.9201 175.00
93.9853 178.00
94.0505 149.00
94.1157 171.00
94.1809 175.00
94.2461 174.00
94.3113 164.00
94.3765 157.00
94.4417 174.00
94.5069 171.00
94.5721 151.00
94.6373 165.00
94.7025 154.00
94.7677 186.00
94.8329 182.00
94.8981 192.00
94.9633 181.00
95.0285 179.00
95.0937 147.00
95.1589 170.00
95.2241 180.00
95.2893 181.00
95.3545 191.00
95.4197 159.00
95.4848 163.00
95.55 175.00
95.6153 175.00
95.6804 174.00
95.7456 161.00
95.8108 164.00
95.876 186.00
95.9412 149.00
96.0064 181.00
96.0716 186.00
96.1368 188.00
96.202 158.00
96.2672 155.00
96.3324 181.00
96.3976 169.00
96.4628 137.00
96.528 173.00
96.5932 148.00
96.6584 173.00
96.7236 150.00
96.7888 164.00
96.854 163.00
96.9192 155.00
96.9844 181.00
97.0496 162.00
97.1148 143.00
97.18 182.00
97.2452 169.00
97.3104 173.00
97.3756 154.00
97.4408 169.00
97.506 177.00
97.5712 182.00
97.6364 187.00
97.7016 160.00
97.7668 150.00
97.832 167.00
97.8972 187.00
97.9624 166.00
98.0276 169.00
98.0928 177.00
98.158 163.00
98.2232 159.00
98.2884 166.00
98.3536 179.00
98.4188 159.00
98.484 156.00
98.5492 182.00
98.6144 197.00
98.6796 162.00
98.7448 154.00
98.81 171.00
98.8752 196.00
98.9404 160.00
99.0056 149.00
99.0708 150.00
99.136 174.00
99.2012 175.00
99.2664 180.00
99.3316 166.00
99.3968 155.00
99.462 162.00
99.5272 181.00
99.5924 160.00
99.6576 179.00
99.7228 160.00
99.788 155.00
99.8532 170.00
99.9184 156.00
99.9836 168.00
99.9944 173.00