File: data/xrd_creation/results/TRI_-1.xy
9.903433 2855.00
9.968632 2806.00
10.0338 2848.00
10.099 2720.00
10.1642 2719.00
10.2294 2728.00
10.2946 2801.00
10.3598 2684.00
10.425 2670.00
10.4902 2612.00
10.5554 2647.00
10.6206 2697.00
10.6858 2602.00
10.751 2599.00
10.8162 2599.00
10.8814 2588.00
10.9466 2510.00
11.0118 2532.00
11.077 2599.00
11.1422 2412.00
11.2074 2525.00
11.2726 2454.00
11.3378 2456.00
11.403 2453.00
11.4682 2448.00
11.5334 2426.00
11.5986 2485.00
11.6638 2479.00
11.729 2372.00
11.7942 2449.00
11.8594 2401.00
11.9246 2327.00
11.9898 2319.00
12.055 2395.00
12.1202 2282.00
12.1854 2350.00
12.2506 2456.00
12.3158 2310.00
12.381 2335.00
12.4462 2321.00
12.5114 2360.00
12.5766 2282.00
12.6418 2412.00
12.707 2287.00
12.7722 2388.00
12.8374 2255.00
12.9026 2271.00
12.9678 2269.00
13.033 2216.00
13.0982 2256.00
13.1634 2252.00
13.2286 2283.00
13.2938 2193.00
13.359 2232.00
13.4242 2245.00
13.4894 2203.00
13.5546 2195.00
13.6198 2225.00
13.685 2177.00
13.7502 2126.00
13.8154 2146.00
13.8805 2245.00
13.9457 2113.00
14.0109 2063.00
14.0761 2131.00
14.1413 2081.00
14.2065 2141.00
14.2717 2071.00
14.3369 2014.00
14.4021 2042.00
14.4673 2163.00
14.5325 2128.00
14.5977 2135.00
14.6629 2069.00
14.7281 2086.00
14.7933 2089.00
14.8585 2038.00
14.9237 2018.00
14.9889 2020.00
15.0541 1974.00
15.1193 1948.00
15.1845 1982.00
15.2497 2061.00
15.3149 2016.00
15.3801 2050.00
15.4453 2108.00
15.5105 1949.00
15.5757 1942.00
15.6409 1922.00
15.7061 2022.00
15.7713 1920.00
15.8365 2001.00
15.9017 2002.00
15.9669 1852.00
16.0321 1927.00
16.0973 1984.00
16.1625 1930.00
16.2277 2007.00
16.2929 1931.00
16.3581 1938.00
16.4233 1890.00
16.4885 1875.00
16.5537 1964.00
16.6189 1908.00
16.6841 1925.00
16.7493 1830.00
16.8145 1903.00
16.8797 1904.00
16.9449 1803.00
17.0101 1846.00
17.0753 1900.00
17.1405 1913.00
17.2057 1988.00
17.2709 1866.00
17.3361 1922.00
17.4013 1841.00
17.4665 1915.00
17.5317 1898.00
17.5969 1924.00
17.6621 1948.00
17.7273 1999.00
17.7925 1956.00
17.8577 2051.00
17.9229 2162.00
17.9881 2115.00
18.0533 2310.00
18.1185 2242.00
18.1837 2341.00
18.2489 2377.00
18.3141 2349.00
18.3793 2353.00
18.4445 2264.00
18.5097 2089.00
18.5749 2031.00
18.6401 1989.00
18.7052 1916.00
18.7704 1924.00
18.8356 1856.00
18.9008 1860.00
18.966 1825.00
19.0312 1746.00
19.0964 1721.00
19.1616 1751.00
19.2268 1739.00
19.292 1646.00
19.3572 1680.00
19.4224 1698.00
19.4876 1631.00
19.5528 1685.00
19.618 1594.00
19.6832 1729.00
19.7484 1697.00
19.8136 1746.00
19.8788 1687.00
19.944 1687.00
20.0092 1650.00
20.0744 1535.00
20.1396 1578.00
20.2048 1642.00
20.27 1563.00
20.3352 1566.00
20.4004 1644.00
20.4656 1557.00
20.5308 1626.00
20.596 1648.00
20.6612 1618.00
20.7264 1638.00
20.7916 1658.00
20.8568 1536.00
20.922 1625.00
20.9872 1648.00
21.0524 1660.00
21.1176 1644.00
21.1828 1587.00
21.248 1523.00
21.3132 1569.00
21.3784 1515.00
21.4436 1487.00
21.5088 1585.00
21.574 1522.00
21.6392 1658.00
21.7044 1454.00
21.7696 1564.00
21.8348 1592.00
21.9 1595.00
21.9652 1572.00
22.0304 1541.00
22.0956 1454.00
22.1608 1503.00
22.226 1533.00
22.2912 1512.00
22.3564 1583.00
22.4216 1512.00
22.4868 1456.00
22.552 1484.00
22.6172 1462.00
22.6824 1662.00
22.7476 1593.00
22.8128 1661.00
22.878 1660.00
22.9432 1730.00
23.0084 2040.00
23.0736 2254.00
23.1388 2872.00
23.204 4114.00
23.2692 6705.00
23.3344 10730.00
23.3996 13100.00
23.4647 10390.00
23.5299 6169.00
23.5951 3203.00
23.6603 2062.00
23.7255 1824.00
23.7907 1667.00
23.8559 1622.00
23.9211 1488.00
23.9863 1450.00
24.0515 1419.00
24.1167 1499.00
24.1819 1474.00
24.2471 1479.00
24.3123 1442.00
24.3775 1406.00
24.4427 1409.00
24.5079 1426.00
24.5731 1429.00
24.6383 1385.00
24.7035 1381.00
24.7687 1320.00
24.8339 1372.00
24.8991 1328.00
24.9643 1413.00
25.0295 1389.00
25.0947 1432.00
25.1599 1496.00
25.2251 1456.00
25.2903 1475.00
25.3555 1529.00
25.4207 1541.00
25.4859 1609.00
25.5511 1541.00
25.6163 1550.00
25.6815 1528.00
25.7467 1436.00
25.8119 1457.00
25.8771 1304.00
25.9423 1446.00
26.0075 1482.00
26.0727 1584.00
26.1379 1774.00
26.2031 1697.00
26.2683 1513.00
26.3335 1493.00
26.3987 1280.00
26.4639 1324.00
26.5291 1378.00
26.5943 1267.00
26.6595 1338.00
26.7247 1304.00
26.7899 1358.00
26.8551 1308.00
26.9203 1268.00
26.9855 1291.00
27.0507 1339.00
27.1159 1341.00
27.1811 1343.00
27.2463 1416.00
27.3115 1456.00
27.3767 1392.00
27.4419 1579.00
27.5071 1541.00
27.5723 1630.00
27.6375 1593.00
27.7027 1596.00
27.7679 1423.00
27.8331 1354.00
27.8983 1311.00
27.9635 1290.00
28.0287 1311.00
28.0939 1275.00
28.1591 1320.00
28.2243 1178.00
28.2894 1225.00
28.3546 1285.00
28.4198 1236.00
28.485 1227.00
28.5502 1264.00
28.6154 1352.00
28.6806 1336.00
28.7458 1300.00
28.811 1401.00
28.8762 1473.00
28.9414 1488.00
29.0066 1438.00
29.0718 1467.00
29.137 1373.00
29.2022 1303.00
29.2674 1455.00
29.3326 1354.00
29.3978 1470.00
29.463 1509.00
29.5282 1642.00
29.5934 1714.00
29.6586 1892.00
29.7238 1849.00
29.789 1780.00
29.8542 1584.00
29.9194 1459.00
29.9846 1460.00
30.0498 1283.00
30.115 1308.00
30.1802 1258.00
30.2454 1238.00
30.3106 1213.00
30.3758 1224.00
30.441 1133.00
30.5062 1146.00
30.5714 1186.00
30.6366 1108.00
30.7018 1142.00
30.767 1156.00
30.8322 1102.00
30.8974 1144.00
30.9626 1115.00
31.0278 1094.00
31.093 1150.00
31.1582 1144.00
31.2234 1100.00
31.2886 1135.00
31.3538 1120.00
31.419 1152.00
31.4842 1137.00
31.5494 1170.00
31.6146 1167.00
31.6798 1159.00
31.745 1204.00
31.8102 1124.00
31.8754 1154.00
31.9406 1243.00
32.0058 1205.00
32.071 1342.00
32.1362 1340.00
32.2014 1432.00
32.2666 1576.00
32.3318 1876.00
32.397 2273.00
32.4622 3338.00
32.5274 4438.00
32.5926 5401.00
32.6578 5809.00
32.723 5509.00
32.7882 4377.00
32.8534 3725.00
32.9186 3612.00
32.9838 4399.00
33.0489 6806.00
33.1141 11366.00
33.1793 18245.00
33.2445 21092.00
33.3097 15140.00
33.3749 8146.00
33.4401 4749.00
33.5053 4301.00
33.5705 4773.00
33.6357 5375.00
33.7009 4834.00
33.7661 3551.00
33.8313 2367.00
33.8965 1889.00
33.9617 1793.00
34.0269 1749.00
34.0921 1740.00
34.1573 1818.00
34.2225 1922.00
34.2877 1913.00
34.3529 1985.00
34.4181 1930.00
34.4833 1971.00
34.5485 1903.00
34.6137 1840.00
34.6789 1778.00
34.7441 1615.00
34.8093 1588.00
34.8745 1522.00
34.9397 1411.00
35.0049 1312.00
35.0701 1322.00
35.1353 1187.00
35.2005 1269.00
35.2657 1150.00
35.3309 1160.00
35.3961 1088.00
35.4613 1135.00
35.5265 1097.00
35.5917 1092.00
35.6569 1102.00
35.7221 1122.00
35.7873 1099.00
35.8525 1070.00
35.9177 1127.00
35.9829 1033.00
36.0481 1055.00
36.1133 1102.00
36.1785 1088.00
36.2437 1146.00
36.3089 1116.00
36.3741 1052.00
36.4393 1077.00
36.5045 1101.00
36.5697 1097.00
36.6349 1060.00
36.7001 1067.00
36.7653 1093.00
36.8305 1168.00
36.8957 1075.00
36.9609 1065.00
37.0261 1038.00
37.0913 1027.00
37.1565 1066.00
37.2217 1043.00
37.2869 1158.00
37.3521 1144.00
37.4173 1306.00
37.4825 1718.00
37.5477 2453.00
37.6129 3950.00
37.6781 4067.00
37.7433 2910.00
37.8085 1720.00
37.8736 1224.00
37.9388 1156.00
38.004 1096.00
38.0692 1105.00
38.1344 1052.00
38.1996 938.00
38.2648 1041.00
38.33 989.00
38.3952 997.00
38.4604 1001.00
38.5256 1009.00
38.5908 1075.00
38.656 1095.00
38.7212 1041.00
38.7864 1071.00
38.8516 1106.00
38.9168 1035.00
38.982 1016.00
39.0472 1101.00
39.1124 1197.00
39.1776 1275.00
39.2428 1490.00
39.308 1565.00
39.3732 1510.00
39.4384 1419.00
39.5036 1315.00
39.5688 1153.00
39.634 1104.00
39.6992 1092.00
39.7644 1035.00
39.8296 1060.00
39.8948 1004.00
39.96 981.00
40.0252 956.00
40.0904 1015.00
40.1556 1004.00
40.2208 916.00
40.286 1004.00
40.3512 1132.00
40.4164 1189.00
40.4816 1231.00
40.5468 1138.00
40.612 1110.00
40.6772 1034.00
40.7424 1016.00
40.8076 988.00
40.8728 961.00
40.938 976.00
41.0032 978.00
41.0684 968.00
41.1336 982.00
41.1988 1120.00
41.264 1173.00
41.3292 1214.00
41.3944 1110.00
41.4596 1040.00
41.5248 950.00
41.59 976.00
41.6552 856.00
41.7204 936.00
41.7856 915.00
41.8508 933.00
41.916 929.00
41.9812 899.00
42.0464 919.00
42.1116 860.00
42.1768 897.00
42.242 890.00
42.3072 932.00
42.3724 988.00
42.4376 907.00
42.5028 987.00
42.568 1050.00
42.6332 1168.00
42.6983 1185.00
42.7635 1167.00
42.8287 1074.00
42.8939 982.00
42.9591 959.00
43.0243 921.00
43.0895 916.00
43.1547 951.00
43.2199 915.00
43.2851 946.00
43.3503 954.00
43.4155 976.00
43.4807 980.00
43.5459 964.00
43.6111 913.00
43.6763 890.00
43.7415 873.00
43.8067 979.00
43.8719 976.00
43.9371 1008.00
44.0023 1068.00
44.0675 1055.00
44.1327 1035.00
44.1979 1017.00
44.2631 970.00
44.3283 1051.00
44.3935 1011.00
44.4587 1062.00
44.5239 1103.00
44.5891 1055.00
44.6543 1070.00
44.7195 1082.00
44.7847 998.00
44.8499 1043.00
44.9151 972.00
44.9803 940.00
45.0455 932.00
45.1107 980.00
45.1759 888.00
45.2411 935.00
45.3063 875.00
45.3715 950.00
45.4367 909.00
45.5019 889.00
45.5671 875.00
45.6323 872.00
45.6975 886.00
45.7627 898.00
45.8279 939.00
45.8931 890.00
45.9583 917.00
46.0235 871.00
46.0887 946.00
46.1539 874.00
46.2191 895.00
46.2843 977.00
46.3495 894.00
46.4147 944.00
46.4799 928.00
46.5451 993.00
46.6103 977.00
46.6755 1048.00
46.7407 1041.00
46.8059 1073.00
46.8711 1124.00
46.9363 1197.00
47.0015 1364.00
47.0667 1478.00
47.1319 1659.00
47.1971 1968.00
47.2623 2666.00
47.3275 3886.00
47.3927 5306.00
47.4579 6137.00
47.523 5770.00
47.5882 5593.00
47.6534 5038.00
47.7186 3962.00
47.7838 2892.00
47.849 2067.00
47.9142 1473.00
47.9794 1262.00
48.0446 1168.00
48.1098 1073.00
48.175 1085.00
48.2402 970.00
48.3054 951.00
48.3706 1025.00
48.4358 957.00
48.501 975.00
48.5662 1097.00
48.6314 1112.00
48.6966 1154.00
48.7618 1139.00
48.827 1203.00
48.8922 1165.00
48.9574 1208.00
49.0226 1169.00
49.0878 1151.00
49.153 993.00
49.2182 1041.00
49.2834 969.00
49.3486 908.00
49.4138 930.00
49.479 989.00
49.5442 1071.00
49.6094 999.00
49.6746 1075.00
49.7398 1010.00
49.805 1041.00
49.8702 997.00
49.9354 1009.00
50.0006 970.00
50.0658 999.00
50.131 985.00
50.1962 951.00
50.2614 910.00
50.3266 973.00
50.3918 894.00
50.457 880.00
50.5222 927.00
50.5874 957.00
50.6526 940.00
50.7178 924.00
50.783 1019.00
50.8482 991.00
50.9134 1063.00
50.9786 1110.00
51.0438 1135.00
51.109 1169.00
51.1742 1074.00
51.2394 1128.00
51.3046 1052.00
51.3698 1008.00
51.435 1012.00
51.5002 947.00
51.5654 958.00
51.6306 973.00
51.6958 913.00
51.761 956.00
51.8262 934.00
51.8914 863.00
51.9566 829.00
52.0218 876.00
52.087 875.00
52.1522 941.00
52.2174 918.00
52.2826 929.00
52.3477 918.00
52.4129 1045.00
52.4781 1093.00
52.5433 1256.00
52.6085 1475.00
52.6737 1664.00
52.7389 1634.00
52.8041 1749.00
52.8693 1598.00
52.9345 1325.00
52.9997 1277.00
53.0649 1131.00
53.1301 1188.00
53.1953 1244.00
53.2605 1417.00
53.3257 1708.00
53.3909 2254.00
53.4561 2690.00
53.5213 2916.00
53.5865 2986.00
53.6517 2667.00
53.7169 2148.00
53.7821 1772.00
53.8473 1591.00
53.9125 1469.00
53.9777 1670.00
54.0429 2243.00
54.1081 3041.00
54.1733 2697.00
54.2385 2367.00
54.3037 2009.00
54.3689 1393.00
54.4341 1204.00
54.4993 1126.00
54.5645 999.00
54.6297 958.00
54.6949 949.00
54.7601 958.00
54.8253 875.00
54.8905 867.00
54.9557 830.00
55.0209 857.00
55.0861 809.00
55.1513 820.00
55.2165 838.00
55.2817 868.00
55.3469 838.00
55.4121 824.00
55.4773 790.00
55.5425 848.00
55.6077 840.00
55.6729 840.00
55.7381 812.00
55.8033 814.00
55.8685 771.00
55.9337 842.00
55.9989 793.00
56.0641 816.00
56.1293 837.00
56.1945 860.00
56.2597 817.00
56.3249 851.00
56.3901 839.00
56.4553 840.00
56.5205 875.00
56.5857 876.00
56.6509 822.00
56.7161 848.00
56.7813 816.00
56.8465 850.00
56.9117 845.00
56.9769 824.00
57.042 823.00
57.1073 811.00
57.1724 836.00
57.2376 833.00
57.3028 839.00
57.368 898.00
57.4332 784.00
57.4984 811.00
57.5636 874.00
57.6288 898.00
57.694 876.00
57.7592 946.00
57.8244 917.00
57.8896 951.00
57.9548 1027.00
58.02 1098.00
58.0852 1200.00
58.1504 1499.00
58.2156 1889.00
58.2808 2375.00
58.346 2684.00
58.4112 2642.00
58.4764 2554.00
58.5416 2253.00
58.6068 2143.00
58.672 2171.00
58.7372 2344.00
58.8024 2468.00
58.8676 2225.00
58.9328 2103.00
58.998 1841.00
59.0632 1637.00
59.1284 1654.00
59.1936 1735.00
59.2588 2028.00
59.324 2560.00
59.3892 3136.00
59.4544 3612.00
59.5196 3728.00
59.5848 3852.00
59.65 3777.00
59.7152 3165.00
59.7804 2607.00
59.8456 2037.00
59.9108 1572.00
59.976 1127.00
60.0412 1028.00
60.1064 880.00
60.1716 775.00
60.2368 781.00
60.302 835.00
60.3672 800.00
60.4324 810.00
60.4976 828.00
60.5628 759.00
60.628 766.00
60.6932 780.00
60.7584 753.00
60.8236 776.00
60.8888 805.00
60.954 751.00
61.0192 748.00
61.0844 803.00
61.1496 728.00
61.2148 752.00
61.28 750.00
61.3452 805.00
61.4104 780.00
61.4756 771.00
61.5408 787.00
61.606 750.00
61.6712 799.00
61.7364 793.00
61.8016 714.00
61.8667 724.00
61.932 783.00
61.9971 805.00
62.0623 795.00
62.1275 771.00
62.1927 764.00
62.2579 735.00
62.3231 701.00
62.3883 774.00
62.4535 793.00
62.5187 789.00
62.5839 768.00
62.6491 791.00
62.7143 826.00
62.7795 796.00
62.8447 796.00
62.9099 872.00
62.9751 802.00
63.0403 841.00
63.1055 813.00
63.1707 874.00
63.2359 821.00
63.3011 796.00
63.3663 841.00
63.4315 853.00
63.4967 752.00
63.5619 756.00
63.6271 778.00
63.6923 754.00
63.7575 765.00
63.8227 814.00
63.8879 791.00
63.9531 807.00
64.0183 791.00
64.0835 854.00
64.1487 825.00
64.2139 834.00
64.2791 925.00
64.3443 1026.00
64.4095 1154.00
64.4747 1048.00
64.5399 1072.00
64.6051 988.00
64.6703 862.00
64.7355 809.00
64.8007 861.00
64.8659 836.00
64.9311 844.00
64.9963 829.00
65.0615 878.00
65.1267 825.00
65.1919 767.00
65.2571 793.00
65.3223 792.00
65.3875 729.00
65.4527 747.00
65.5179 747.00
65.5831 685.00
65.6483 757.00
65.7135 712.00
65.7787 740.00
65.8439 717.00
65.9091 758.00
65.9743 773.00
66.0395 708.00
66.1047 710.00
66.1699 752.00
66.2351 670.00
66.3003 703.00
66.3655 697.00
66.4307 708.00
66.4959 755.00
66.561 707.00
66.6263 644.00
66.6915 695.00
66.7566 657.00
66.8218 729.00
66.887 676.00
66.9522 714.00
67.0174 721.00
67.0826 712.00
67.1478 714.00
67.213 744.00
67.2782 751.00
67.3434 750.00
67.4086 732.00
67.4738 802.00
67.539 887.00
67.6042 1123.00
67.6694 1020.00
67.7346 999.00
67.7998 1089.00
67.865 1062.00
67.9302 982.00
67.9954 945.00
68.0606 907.00
68.1258 933.00
68.191 882.00
68.2562 864.00
68.3214 849.00
68.3866 798.00
68.4518 766.00
68.517 835.00
68.5822 765.00
68.6474 763.00
68.7126 866.00
68.7778 810.00
68.843 849.00
68.9082 914.00
68.9734 1065.00
69.0386 1164.00
69.1038 1326.00
69.169 1616.00
69.2342 1819.00
69.2994 2042.00
69.3646 2157.00
69.4298 1934.00
69.495 1654.00
69.5602 1530.00
69.6254 1182.00
69.6906 1001.00
69.7558 936.00
69.821 891.00
69.8862 884.00
69.9514 848.00
70.0166 820.00
70.0818 847.00
70.147 823.00
70.2122 936.00
70.2774 951.00
70.3426 963.00
70.4078 982.00
70.473 885.00
70.5382 880.00
70.6034 893.00
70.6686 756.00
70.7338 729.00
70.799 708.00
70.8642 719.00
70.9294 713.00
70.9946 702.00
71.0598 679.00
71.125 747.00
71.1902 734.00
71.2554 696.00
71.3205 684.00
71.3858 677.00
71.451 716.00
71.5162 685.00
71.5813 745.00
71.6465 769.00
71.7117 700.00
71.7769 710.00
71.8421 720.00
71.9073 697.00
71.9725 778.00
72.0377 714.00
72.1029 724.00
72.1681 710.00
72.2333 751.00
72.2985 756.00
72.3637 770.00
72.4289 825.00
72.4941 848.00
72.5593 839.00
72.6245 819.00
72.6897 861.00
72.7549 918.00
72.8201 981.00
72.8853 928.00
72.9505 967.00
73.0157 935.00
73.0809 935.00
73.1461 910.00
73.2113 903.00
73.2765 960.00
73.3417 970.00
73.4069 981.00
73.4721 1060.00
73.5373 1125.00
73.6025 1159.00
73.6677 1152.00
73.7329 1115.00
73.7981 1100.00
73.8633 1040.00
73.9285 959.00
73.9937 941.00
74.0589 911.00
74.1241 850.00
74.1893 851.00
74.2545 844.00
74.3197 810.00
74.3849 781.00
74.4501 827.00
74.5153 835.00
74.5805 880.00
74.6457 975.00
74.7109 925.00
74.7761 943.00
74.8413 939.00
74.9065 888.00
74.9717 855.00
75.0369 917.00
75.1021 865.00
75.1673 827.00
75.2325 869.00
75.2977 830.00
75.3629 815.00
75.4281 724.00
75.4933 704.00
75.5585 693.00
75.6237 615.00
75.6889 668.00
75.7541 657.00
75.8193 709.00
75.8845 679.00
75.9497 716.00
76.0149 631.00
76.0801 616.00
76.1452 660.00
76.2104 617.00
76.2756 677.00
76.3409 625.00
76.406 624.00
76.4712 639.00
76.5364 623.00
76.6016 650.00
76.6668 686.00
76.732 627.00
76.7972 658.00
76.8624 655.00
76.9276 664.00
76.9928 682.00
77.058 680.00
77.1232 700.00
77.1884 721.00
77.2536 694.00
77.3188 707.00
77.384 723.00
77.4492 686.00
77.5144 703.00
77.5796 745.00
77.6448 786.00
77.71 825.00
77.7752 895.00
77.8404 861.00
77.9056 849.00
77.9708 906.00
78.036 883.00
78.1012 836.00
78.1664 870.00
78.2316 877.00
78.2968 832.00
78.362 830.00
78.4272 856.00
78.4924 959.00
78.5576 1048.00
78.6228 1212.00
78.688 1304.00
78.7532 1382.00
78.8184 1483.00
78.8836 1493.00
78.9488 1588.00
79.014 1573.00
79.0792 1692.00
79.1444 1528.00
79.2096 1383.00
79.2748 1298.00
79.34 1252.00
79.4052 1130.00
79.4704 1027.00
79.5356 937.00
79.6008 1007.00
79.666 990.00
79.7312 943.00
79.7964 830.00
79.8616 911.00
79.9268 910.00
79.992 826.00
80.0572 863.00
80.1224 765.00
80.1876 764.00
80.2528 707.00
80.318 670.00
80.3832 669.00
80.4484 714.00
80.5136 627.00
80.5788 693.00
80.644 653.00
80.7092 674.00
80.7744 645.00
80.8396 600.00
80.9048 705.00
80.9699 678.00
81.0351 637.00
81.1003 608.00
81.1655 698.00
81.2307 593.00
81.2959 643.00
81.3611 677.00
81.4263 665.00
81.4915 684.00
81.5567 661.00
81.6219 680.00
81.6871 667.00
81.7523 663.00
81.8175 710.00
81.8827 664.00
81.9479 654.00
82.0131 714.00
82.0783 723.00
82.1435 688.00
82.2087 749.00
82.2739 729.00
82.3391 779.00
82.4043 844.00
82.4695 856.00
82.5347 806.00
82.5999 892.00
82.6651 811.00
82.7303 849.00
82.7955 835.00
82.8607 808.00
82.9259 789.00
82.9911 771.00
83.0563 763.00
83.1215 720.00
83.1867 702.00
83.2519 686.00
83.3171 763.00
83.3823 729.00
83.4475 767.00
83.5127 804.00
83.5779 770.00
83.6431 777.00
83.7083 836.00
83.7735 825.00
83.8387 815.00
83.9039 823.00
83.9691 893.00
84.0343 856.00
84.0995 894.00
84.1647 887.00
84.2299 939.00
84.2951 949.00
84.3603 898.00
84.4255 892.00
84.4907 821.00
84.5559 824.00
84.6211 811.00
84.6863 813.00
84.7515 786.00
84.8167 732.00
84.8819 817.00
84.9471 778.00
85.0123 696.00
85.0775 729.00
85.1427 688.00
85.2079 739.00
85.2731 711.00
85.3383 676.00
85.4035 708.00
85.4687 687.00
85.5339 681.00
85.5991 738.00
85.6643 660.00
85.7295 663.00
85.7946 668.00
85.8598 660.00
85.925 674.00
85.9903 660.00
86.0554 703.00
86.1206 678.00
86.1858 679.00
86.251 728.00
86.3162 621.00
86.3814 683.00
86.4466 658.00
86.5118 700.00
86.577 715.00
86.6422 717.00
86.7074 715.00
86.7726 801.00
86.8378 782.00
86.903 769.00
86.9682 834.00
87.0334 817.00
87.0986 812.00
87.1638 845.00
87.229 823.00
87.2942 728.00
87.3594 748.00
87.4246 709.00
87.4898 748.00
87.555 752.00
87.6202 738.00
87.6854 685.00
87.7506 715.00
87.8158 644.00
87.881 648.00
87.9462 683.00
88.0114 697.00
88.0766 671.00
88.1418 683.00
88.207 698.00
88.2722 713.00
88.3374 744.00
88.4026 752.00
88.4678 719.00
88.533 720.00
88.5982 746.00
88.6634 772.00
88.7286 851.00
88.7938 812.00
88.859 816.00
88.9242 839.00
88.9894 838.00
89.0546 770.00
89.1198 874.00
89.185 820.00
89.2502 789.00
89.3154 830.00
89.3806 798.00
89.4458 752.00
89.511 704.00
89.5762 737.00
89.6414 697.00
89.7066 663.00
89.7718 665.00
89.837 652.00
89.9022 652.00
89.9674 628.00
90.0326 661.00
90.0978 646.00
90.163 631.00
90.2282 647.00
90.2934 616.00
90.3586 611.00
90.4238 601.00
90.489 637.00
90.5542 658.00
90.6193 683.00
90.6845 737.00
90.7497 727.00
90.8149 681.00
90.8801 703.00
90.9453 682.00
91.0105 711.00
91.0757 802.00
91.1409 744.00
91.2061 757.00
91.2713 686.00
91.3365 687.00
91.4017 725.00
91.4669 782.00
91.5321 852.00
91.5973 957.00
91.6625 987.00
91.7277 844.00
91.7929 823.00
91.8581 825.00
91.9233 840.00
91.9885 839.00
92.0537 827.00
92.1189 699.00
92.1841 739.00
92.2493 757.00
92.3145 745.00
92.3797 768.00
92.4449 749.00
92.5101 776.00
92.5753 791.00
92.6405 818.00
92.7057 858.00
92.7709 868.00
92.8361 824.00
92.9013 751.00
92.9665 836.00
93.0317 844.00
93.0969 788.00
93.1621 748.00
93.2273 743.00
93.2925 723.00
93.3577 689.00
93.4229 695.00
93.4881 646.00
93.5533 659.00
93.6185 684.00
93.6837 678.00
93.7489 644.00
93.8141 714.00
93.8793 624.00
93.9445 713.00
94.0097 712.00
94.0749 778.00
94.1401 664.00
94.2053 706.00
94.2705 676.00
94.3357 713.00
94.4009 710.00
94.4661 645.00
94.5313 665.00
94.5965 702.00
94.6617 616.00
94.7269 712.00
94.7921 645.00
94.8573 694.00
94.9225 665.00
94.9877 617.00
95.0529 691.00
95.1181 690.00
95.1833 755.00
95.2485 737.00
95.3137 736.00
95.3789 782.00
95.444 735.00
95.5092 777.00
95.5744 770.00
95.6396 772.00
95.7048 772.00
95.77 797.00
95.8352 782.00
95.9004 784.00
95.9656 785.00
96.0308 860.00
96.096 775.00
96.1612 800.00
96.2264 874.00
96.2916 901.00
96.3568 954.00
96.422 997.00
96.4872 926.00
96.5524 907.00
96.6176 928.00
96.6828 1059.00
96.748 1005.00
96.8132 1051.00
96.8784 1042.00
96.9436 1063.00
97.0088 1037.00
97.074 961.00
97.1392 914.00
97.2044 910.00
97.2696 917.00
97.3348 974.00
97.4 845.00
97.4652 920.00
97.5304 890.00
97.5956 941.00
97.6608 1024.00
97.726 971.00
97.7912 1100.00
97.8564 1048.00
97.9216 1257.00
97.9868 1266.00
98.052 1347.00
98.1172 1290.00
98.1824 1294.00
98.2476 1243.00
98.3128 1254.00
98.378 1158.00
98.4432 1173.00
98.5084 1077.00
98.5736 1084.00
98.6388 1059.00
98.704 1003.00
98.7692 1025.00
98.8344 1011.00
98.8996 985.00
98.9648 951.00
99.03 874.00
99.0952 919.00
99.1604 856.00
99.2256 766.00
99.2908 769.00
99.356 755.00
99.4212 712.00
99.4864 708.00
99.5516 716.00
99.6168 713.00
99.682 655.00
99.7472 628.00
99.8124 603.00
99.8776 653.00
99.9428 633.00
100.008 626.00
100.073 611.00
100.095 657.00