File: data/xrd_creation/results/TRI_198.xy
10.0094 2346.00
10.0746 2385.00
10.1398 2343.00
10.205 2276.00
10.2702 2305.00
10.3354 2212.00
10.4006 2171.00
10.4658 2113.00
10.531 2166.00
10.5962 2179.00
10.6614 2101.00
10.7266 2106.00
10.7918 2117.00
10.857 2052.00
10.9222 1957.00
10.9874 1978.00
11.0526 1993.00
11.1178 2022.00
11.183 1973.00
11.2482 1934.00
11.3134 1910.00
11.3786 1911.00
11.4438 1901.00
11.509 1951.00
11.5742 1826.00
11.6394 1901.00
11.7046 1864.00
11.7698 1826.00
11.835 1805.00
11.9002 1804.00
11.9654 1785.00
12.0306 1708.00
12.0958 1704.00
12.161 1716.00
12.2262 1704.00
12.2914 1714.00
12.3566 1704.00
12.4218 1643.00
12.487 1621.00
12.5522 1722.00
12.6174 1668.00
12.6826 1717.00
12.7478 1632.00
12.813 1575.00
12.8782 1564.00
12.9434 1566.00
13.0086 1627.00
13.0738 1615.00
13.139 1607.00
13.2042 1578.00
13.2694 1506.00
13.3346 1592.00
13.3998 1449.00
13.465 1501.00
13.5302 1498.00
13.5954 1468.00
13.6606 1495.00
13.7258 1431.00
13.791 1459.00
13.8562 1477.00
13.9214 1385.00
13.9865 1429.00
14.0517 1391.00
14.1169 1382.00
14.1821 1431.00
14.2473 1398.00
14.3125 1354.00
14.3777 1395.00
14.4429 1325.00
14.5081 1327.00
14.5733 1313.00
14.6385 1383.00
14.7037 1364.00
14.7689 1350.00
14.8341 1335.00
14.8993 1273.00
14.9645 1283.00
15.0297 1289.00
15.0949 1269.00
15.1601 1278.00
15.2253 1257.00
15.2905 1339.00
15.3557 1270.00
15.4209 1249.00
15.4861 1192.00
15.5513 1291.00
15.6165 1263.00
15.6817 1269.00
15.7469 1240.00
15.8121 1237.00
15.8773 1267.00
15.9425 1216.00
16.0077 1207.00
16.0729 1243.00
16.1381 1204.00
16.2033 1236.00
16.2685 1156.00
16.3337 1216.00
16.3989 1268.00
16.4641 1220.00
16.5293 1213.00
16.5945 1194.00
16.6597 1209.00
16.7249 1195.00
16.7901 1110.00
16.8553 1168.00
16.9205 1178.00
16.9857 1172.00
17.0509 1203.00
17.1161 1179.00
17.1813 1147.00
17.2465 1171.00
17.3117 1149.00
17.3769 1199.00
17.4421 1171.00
17.5073 1155.00
17.5725 1162.00
17.6377 1204.00
17.7029 1210.00
17.7681 1253.00
17.8333 1227.00
17.8985 1356.00
17.9637 1407.00
18.0289 1246.00
18.0941 1217.00
18.1593 1203.00
18.2245 1284.00
18.2897 1393.00
18.3549 1488.00
18.4201 1730.00
18.4853 1724.00
18.5505 1535.00
18.6157 1234.00
18.6809 1114.00
18.7461 1071.00
18.8112 1070.00
18.8764 1059.00
18.9416 1069.00
19.0068 1067.00
19.072 1039.00
19.1372 1119.00
19.2024 1073.00
19.2676 1163.00
19.3328 1115.00
19.398 1208.00
19.4632 1160.00
19.5284 1265.00
19.5936 1328.00
19.6588 1370.00
19.724 1605.00
19.7892 1797.00
19.8544 1400.00
19.9196 1111.00
19.9848 983.00
20.05 942.00
20.1152 952.00
20.1804 948.00
20.2456 968.00
20.3108 970.00
20.376 923.00
20.4412 907.00
20.5064 926.00
20.5716 912.00
20.6368 922.00
20.702 990.00
20.7672 908.00
20.8324 924.00
20.8976 1000.00
20.9628 876.00
21.028 844.00
21.0932 873.00
21.1584 899.00
21.2236 860.00
21.2888 834.00
21.354 893.00
21.4192 901.00
21.4844 856.00
21.5496 876.00
21.6148 877.00
21.68 820.00
21.7452 877.00
21.8104 791.00
21.8756 808.00
21.9408 882.00
22.006 894.00
22.0712 849.00
22.1364 909.00
22.2016 813.00
22.2668 844.00
22.332 819.00
22.3972 818.00
22.4624 819.00
22.5276 777.00
22.5928 845.00
22.658 862.00
22.7232 825.00
22.7884 857.00
22.8536 818.00
22.9188 806.00
22.984 785.00
23.0492 856.00
23.1144 824.00
23.1796 764.00
23.2448 823.00
23.31 868.00
23.3752 759.00
23.4404 828.00
23.5056 869.00
23.5708 820.00
23.6359 790.00
23.7011 762.00
23.7663 803.00
23.8315 747.00
23.8967 801.00
23.9619 705.00
24.0271 735.00
24.0923 697.00
24.1575 786.00
24.2227 773.00
24.2879 760.00
24.3531 739.00
24.4183 755.00
24.4835 713.00
24.5487 753.00
24.6139 701.00
24.6791 758.00
24.7443 738.00
24.8095 783.00
24.8747 800.00
24.9399 881.00
25.0051 881.00
25.0703 982.00
25.1355 1147.00
25.2007 1281.00
25.2659 1629.00
25.3311 1735.00
25.3963 1380.00
25.4615 997.00
25.5267 829.00
25.5919 835.00
25.6571 782.00
25.7223 888.00
25.7875 925.00
25.8527 928.00
25.9179 786.00
25.9831 794.00
26.0483 946.00
26.1135 1048.00
26.1787 1120.00
26.2439 946.00
26.3091 783.00
26.3743 700.00
26.4395 773.00
26.5047 713.00
26.5699 703.00
26.6351 708.00
26.7003 711.00
26.7655 680.00
26.8307 707.00
26.8959 727.00
26.9611 666.00
27.0263 676.00
27.0915 728.00
27.1567 809.00
27.2219 735.00
27.2871 719.00
27.3523 663.00
27.4175 714.00
27.4827 670.00
27.5479 804.00
27.6131 859.00
27.6783 884.00
27.7435 980.00
27.8087 1167.00
27.8739 1419.00
27.9391 1705.00
28.0043 2402.00
28.0695 3288.00
28.1347 3690.00
28.1999 2834.00
28.2651 2026.00
28.3303 1388.00
28.3955 1069.00
28.4606 946.00
28.5258 1057.00
28.591 1301.00
28.6562 1099.00
28.7214 888.00
28.7866 908.00
28.8518 974.00
28.917 1159.00
28.9822 1539.00
29.0474 1448.00
29.1126 1167.00
29.1778 800.00
29.243 705.00
29.3082 665.00
29.3734 686.00
29.4386 690.00
29.5038 733.00
29.569 801.00
29.6342 936.00
29.6994 952.00
29.7646 918.00
29.8298 850.00
29.895 941.00
29.9602 1051.00
30.0254 1251.00
30.0906 1712.00
30.1558 1967.00
30.221 2011.00
30.2862 1716.00
30.3514 1748.00
30.4166 1905.00
30.4818 1474.00
30.547 923.00
30.6122 734.00
30.6774 640.00
30.7426 605.00
30.8078 594.00
30.873 603.00
30.9382 624.00
31.0034 663.00
31.0686 752.00
31.1338 798.00
31.199 923.00
31.2642 1056.00
31.3294 986.00
31.3946 931.00
31.4598 1006.00
31.525 837.00
31.5902 766.00
31.6554 698.00
31.7206 702.00
31.7858 751.00
31.851 789.00
31.9162 727.00
31.9814 564.00
32.0466 525.00
32.1118 588.00
32.177 481.00
32.2422 479.00
32.3074 513.00
32.3726 488.00
32.4378 519.00
32.503 528.00
32.5682 502.00
32.6334 536.00
32.6986 458.00
32.7638 499.00
32.829 491.00
32.8942 499.00
32.9594 494.00
33.0246 535.00
33.0898 473.00
33.1549 500.00
33.2201 509.00
33.2853 456.00
33.3505 474.00
33.4157 509.00
33.4809 507.00
33.5461 494.00
33.6113 538.00
33.6765 585.00
33.7417 561.00
33.8069 495.00
33.8721 542.00
33.9373 520.00
34.0025 495.00
34.0677 529.00
34.1329 640.00
34.1981 703.00
34.2633 846.00
34.3285 719.00
34.3937 616.00
34.4589 515.00
34.5241 478.00
34.5893 463.00
34.6545 416.00
34.7197 505.00
34.7849 472.00
34.8501 470.00
34.9153 458.00
34.9805 435.00
35.0457 468.00
35.1109 426.00
35.1761 489.00
35.2413 481.00
35.3065 471.00
35.3717 460.00
35.4369 487.00
35.5021 535.00
35.5673 576.00
35.6325 592.00
35.6977 559.00
35.7629 520.00
35.8281 491.00
35.8933 486.00
35.9585 513.00
36.0237 508.00
36.0889 545.00
36.1541 510.00
36.2193 496.00
36.2845 508.00
36.3497 488.00
36.4149 414.00
36.4801 411.00
36.5453 459.00
36.6105 488.00
36.6757 556.00
36.7409 556.00
36.8061 678.00
36.8713 770.00
36.9365 1025.00
37.0017 1281.00
37.0669 1346.00
37.1321 1539.00
37.1973 1488.00
37.2625 1484.00
37.3277 1215.00
37.3929 838.00
37.4581 616.00
37.5233 463.00
37.5885 487.00
37.6537 470.00
37.7189 494.00
37.7841 433.00
37.8493 454.00
37.9145 475.00
37.9796 481.00
38.0448 402.00
38.11 409.00
38.1752 516.00
38.2404 513.00
38.3056 502.00
38.3708 457.00
38.436 440.00
38.5012 409.00
38.5664 418.00
38.6316 456.00
38.6968 450.00
38.762 436.00
38.8272 436.00
38.8924 436.00
38.9576 433.00
39.0228 448.00
39.088 463.00
39.1532 428.00
39.2184 439.00
39.2836 424.00
39.3488 407.00
39.414 486.00
39.4792 468.00
39.5444 515.00
39.6096 461.00
39.6748 509.00
39.74 539.00
39.8052 571.00
39.8704 773.00
39.9356 882.00
40.0008 921.00
40.066 857.00
40.1312 664.00
40.1964 533.00
40.2616 445.00
40.3268 424.00
40.392 442.00
40.4572 479.00
40.5224 468.00
40.5876 460.00
40.6528 478.00
40.718 427.00
40.7832 376.00
40.8484 371.00
40.9136 372.00
40.9788 450.00
41.044 363.00
41.1092 405.00
41.1744 379.00
41.2396 341.00
41.3048 367.00
41.37 363.00
41.4352 399.00
41.5004 409.00
41.5656 406.00
41.6308 422.00
41.696 445.00
41.7612 482.00
41.8264 488.00
41.8916 565.00
41.9568 618.00
42.022 629.00
42.0872 629.00
42.1524 607.00
42.2176 592.00
42.2828 623.00
42.348 673.00
42.4132 675.00
42.4784 707.00
42.5436 601.00
42.6088 517.00
42.6739 476.00
42.7392 476.00
42.8043 371.00
42.8695 432.00
42.9347 363.00
42.9999 399.00
43.0651 392.00
43.1303 381.00
43.1955 394.00
43.2607 446.00
43.3259 414.00
43.3911 406.00
43.4563 452.00
43.5215 413.00
43.5867 446.00
43.6519 505.00
43.7171 505.00
43.7823 544.00
43.8475 490.00
43.9127 439.00
43.9779 403.00
44.0431 376.00
44.1083 370.00
44.1735 368.00
44.2387 329.00
44.3039 383.00
44.3691 369.00
44.4343 371.00
44.4995 378.00
44.5647 381.00
44.6299 400.00
44.6951 353.00
44.7603 354.00
44.8255 362.00
44.8907 405.00
44.9559 427.00
45.0211 424.00
45.0863 374.00
45.1515 352.00
45.2167 351.00
45.2819 361.00
45.3471 358.00
45.4123 360.00
45.4775 403.00
45.5427 370.00
45.6079 401.00
45.6731 420.00
45.7383 426.00
45.8035 508.00
45.8687 527.00
45.9339 569.00
45.9991 557.00
46.0643 655.00
46.1295 646.00
46.1947 604.00
46.2599 504.00
46.3251 401.00
46.3903 371.00
46.4555 357.00
46.5207 314.00
46.5859 391.00
46.6511 369.00
46.7163 410.00
46.7815 384.00
46.8467 359.00
46.9119 393.00
46.9771 363.00
47.0423 390.00
47.1075 467.00
47.1727 449.00
47.2379 429.00
47.3031 492.00
47.3683 573.00
47.4335 663.00
47.4986 776.00
47.5639 673.00
47.629 508.00
47.6942 475.00
47.7594 413.00
47.8246 400.00
47.8898 382.00
47.955 379.00
48.0202 364.00
48.0854 325.00
48.1506 373.00
48.2158 395.00
48.281 430.00
48.3462 430.00
48.4114 420.00
48.4766 481.00
48.5418 485.00
48.607 580.00
48.6722 572.00
48.7374 578.00
48.8026 521.00
48.8678 528.00
48.933 534.00
48.9982 534.00
49.0634 626.00
49.1286 691.00
49.1938 584.00
49.259 531.00
49.3242 468.00
49.3894 400.00
49.4546 412.00
49.5198 445.00
49.585 468.00
49.6502 462.00
49.7154 554.00
49.7806 768.00
49.8458 962.00
49.911 733.00
49.9762 644.00
50.0414 520.00
50.1066 487.00
50.1718 463.00
50.237 554.00
50.3022 565.00
50.3674 599.00
50.4326 543.00
50.4978 505.00
50.563 471.00
50.6282 401.00
50.6934 424.00
50.7586 494.00
50.8238 459.00
50.889 430.00
50.9542 416.00
51.0194 410.00
51.0846 441.00
51.1498 413.00
51.215 371.00
51.2802 357.00
51.3454 330.00
51.4106 343.00
51.4758 332.00
51.541 349.00
51.6062 343.00
51.6714 359.00
51.7366 405.00
51.8018 462.00
51.867 463.00
51.9322 492.00
51.9974 604.00
52.0626 543.00
52.1278 520.00
52.193 460.00
52.2582 391.00
52.3233 374.00
52.3886 407.00
52.4537 451.00
52.5189 475.00
52.5841 486.00
52.6493 497.00
52.7145 469.00
52.7797 410.00
52.8449 407.00
52.9101 355.00
52.9753 379.00
53.0405 407.00
53.1057 423.00
53.1709 399.00
53.2361 483.00
53.3013 438.00
53.3665 443.00
53.4317 497.00
53.4969 529.00
53.5621 460.00
53.6273 423.00
53.6925 393.00
53.7577 366.00
53.8229 357.00
53.8881 409.00
53.9533 495.00
54.0185 550.00
54.0837 569.00
54.1489 587.00
54.2141 640.00
54.2793 620.00
54.3445 549.00
54.4097 477.00
54.4749 436.00
54.5401 424.00
54.6053 414.00
54.6705 400.00
54.7357 412.00
54.8009 449.00
54.8661 381.00
54.9313 419.00
54.9965 388.00
55.0617 406.00
55.1269 411.00
55.1921 403.00
55.2573 432.00
55.3225 467.00
55.3877 521.00
55.4529 657.00
55.5181 829.00
55.5833 886.00
55.6485 985.00
55.7137 1079.00
55.7789 1119.00
55.8441 900.00
55.9093 640.00
55.9745 519.00
56.0397 423.00
56.1049 378.00
56.1701 363.00
56.2353 359.00
56.3005 356.00
56.3657 434.00
56.4309 481.00
56.4961 476.00
56.5613 574.00
56.6265 549.00
56.6917 438.00
56.7569 467.00
56.8221 389.00
56.8873 408.00
56.9525 405.00
57.0177 445.00
57.0829 539.00
57.148 475.00
57.2132 423.00
57.2784 411.00
57.3436 409.00
57.4088 413.00
57.474 461.00
57.5392 478.00
57.6044 564.00
57.6696 658.00
57.7348 655.00
57.8 633.00
57.8652 590.00
57.9304 524.00
57.9956 556.00
58.0608 571.00
58.126 578.00
58.1912 518.00
58.2564 461.00
58.3216 484.00
58.3868 470.00
58.452 534.00
58.5172 570.00
58.5824 569.00
58.6476 496.00
58.7128 449.00
58.778 415.00
58.8432 406.00
58.9084 355.00
58.9736 343.00
59.0388 355.00
59.104 310.00
59.1692 360.00
59.2344 322.00
59.2996 339.00
59.3648 385.00
59.43 384.00
59.4952 417.00
59.5604 367.00
59.6256 418.00
59.6908 470.00
59.756 468.00
59.8212 460.00
59.8864 487.00
59.9516 470.00
60.0168 421.00
60.082 399.00
60.1472 342.00
60.2124 400.00
60.2776 411.00
60.3428 414.00
60.408 424.00
60.4732 416.00
60.5384 407.00
60.6036 394.00
60.6688 422.00
60.734 429.00
60.7992 443.00
60.8644 426.00
60.9296 435.00
60.9948 447.00
61.06 366.00
61.1252 340.00
61.1904 306.00
61.2556 316.00
61.3208 331.00
61.386 339.00
61.4512 332.00
61.5164 353.00
61.5816 340.00
61.6468 326.00
61.712 317.00
61.7772 295.00
61.8424 344.00
61.9076 316.00
61.9727 302.00
62.0379 338.00
62.1031 351.00
62.1683 387.00
62.2335 417.00
62.2987 440.00
62.3639 439.00
62.4291 441.00
62.4943 443.00
62.5595 437.00
62.6247 404.00
62.6899 341.00
62.7551 354.00
62.8203 345.00
62.8855 380.00
62.9507 379.00
63.0159 407.00
63.0811 386.00
63.1463 433.00
63.2115 435.00
63.2767 533.00
63.3419 519.00
63.4071 507.00
63.4723 519.00
63.5375 461.00
63.6027 454.00
63.6679 433.00
63.7331 395.00
63.7983 427.00
63.8635 381.00
63.9287 348.00
63.9939 318.00
64.0591 320.00
64.1243 295.00
64.1895 315.00
64.2547 313.00
64.3199 322.00
64.3851 307.00
64.4503 304.00
64.5155 335.00
64.5807 349.00
64.6459 317.00
64.7111 368.00
64.7763 377.00
64.8415 412.00
64.9067 419.00
64.9719 470.00
65.0371 489.00
65.1023 479.00
65.1675 486.00
65.2327 475.00
65.2979 475.00
65.3631 496.00
65.4283 518.00
65.4935 625.00
65.5587 595.00
65.6239 470.00
65.6891 438.00
65.7543 409.00
65.8195 382.00
65.8847 359.00
65.9499 295.00
66.0151 304.00
66.0803 374.00
66.1455 344.00
66.2107 338.00
66.2759 302.00
66.3411 400.00
66.4063 360.00
66.4715 353.00
66.5367 309.00
66.6019 349.00
66.6671 314.00
66.7322 340.00
66.7974 345.00
66.8626 334.00
66.9278 287.00
66.993 299.00
67.0582 256.00
67.1234 280.00
67.1886 276.00
67.2538 305.00
67.319 288.00
67.3842 307.00
67.4494 320.00
67.5146 349.00
67.5798 362.00
67.645 350.00
67.7102 409.00
67.7754 335.00
67.8406 326.00
67.9058 329.00
67.971 340.00
68.0362 339.00
68.1014 303.00
68.1666 293.00
68.2318 292.00
68.297 319.00
68.3622 351.00
68.4274 369.00
68.4926 334.00
68.5578 310.00
68.623 295.00
68.6882 305.00
68.7534 270.00
68.8186 272.00
68.8838 286.00
68.949 279.00
69.0142 272.00
69.0794 308.00
69.1446 248.00
69.2098 286.00
69.275 287.00
69.3402 304.00
69.4054 276.00
69.4706 308.00
69.5358 269.00
69.601 344.00
69.6662 322.00
69.7314 320.00
69.7966 297.00
69.8618 304.00
69.927 341.00
69.9922 281.00
70.0574 324.00
70.1226 318.00
70.1878 360.00
70.253 406.00
70.3182 442.00
70.3834 433.00
70.4486 447.00
70.5138 507.00
70.579 585.00
70.6442 596.00
70.7094 544.00
70.7746 436.00
70.8398 458.00
70.905 411.00
70.9702 342.00
71.0354 389.00
71.1006 393.00
71.1658 378.00
71.231 393.00
71.2962 363.00
71.3614 358.00
71.4266 394.00
71.4918 338.00
71.5569 362.00
71.6221 321.00
71.6873 350.00
71.7525 397.00
71.8177 394.00
71.8829 403.00
71.9481 401.00
72.0133 410.00
72.0785 436.00
72.1437 378.00
72.2089 417.00
72.2741 432.00
72.3393 392.00
72.4045 362.00
72.4697 397.00
72.5349 342.00
72.6001 331.00
72.6653 299.00
72.7305 291.00
72.7957 323.00
72.8609 286.00
72.9261 284.00
72.9913 294.00
73.0565 288.00
73.1217 281.00
73.1869 319.00
73.2521 281.00
73.3173 259.00
73.3825 271.00
73.4477 275.00
73.5129 281.00
73.5781 272.00
73.6433 277.00
73.7085 300.00
73.7737 262.00
73.8389 269.00
73.9041 282.00
73.9693 317.00
74.0345 324.00
74.0997 314.00
74.1649 333.00
74.2301 304.00
74.2953 308.00
74.3605 314.00
74.4257 285.00
74.4909 310.00
74.5561 308.00
74.6213 306.00
74.6865 315.00
74.7517 328.00
74.8169 302.00
74.8821 302.00
74.9473 300.00
75.0125 314.00
75.0777 313.00
75.1429 322.00
75.2081 293.00
75.2733 307.00
75.3385 290.00
75.4037 299.00
75.4689 269.00
75.5341 269.00
75.5993 257.00
75.6645 280.00
75.7297 295.00
75.7949 261.00
75.8601 274.00
75.9253 293.00
75.9905 322.00
76.0557 321.00
76.1209 293.00
76.186 282.00
76.2513 280.00
76.3165 290.00
76.3816 300.00
76.4468 316.00
76.512 272.00
76.5772 251.00
76.6424 311.00
76.7076 272.00
76.7728 286.00
76.838 293.00
76.9032 261.00
76.9684 279.00
77.0336 304.00
77.0988 269.00
77.164 282.00
77.2292 296.00
77.2944 279.00
77.3596 277.00
77.4248 266.00
77.49 269.00
77.5552 275.00
77.6204 278.00
77.6856 265.00
77.7508 279.00
77.816 277.00
77.8812 290.00
77.9464 289.00
78.0116 244.00
78.0768 278.00
78.142 276.00
78.2072 295.00
78.2724 280.00
78.3376 284.00
78.4028 277.00
78.468 319.00
78.5332 302.00
78.5984 313.00
78.6636 364.00
78.7288 325.00
78.794 350.00
78.8592 308.00
78.9244 320.00
78.9896 327.00
79.0548 295.00
79.12 300.00
79.1852 296.00
79.2504 308.00
79.3156 271.00
79.3808 293.00
79.446 289.00
79.5112 348.00
79.5764 289.00
79.6416 357.00
79.7068 343.00
79.772 301.00
79.8372 311.00
79.9024 293.00
79.9676 328.00
80.0328 306.00
80.098 306.00
80.1632 291.00
80.2284 300.00
80.2936 289.00
80.3588 283.00
80.424 270.00
80.4892 303.00
80.5544 303.00
80.6196 303.00
80.6848 286.00
80.75 296.00
80.8152 308.00
80.8804 304.00
80.9456 372.00
81.0108 318.00
81.076 307.00
81.1412 306.00
81.2063 315.00
81.2715 272.00
81.3367 282.00
81.4019 276.00
81.4671 299.00
81.5323 280.00
81.5975 357.00
81.6627 360.00
81.7279 377.00
81.7931 407.00
81.8583 417.00
81.9235 414.00
81.9887 356.00
82.0539 365.00
82.1191 347.00
82.1843 358.00
82.2495 271.00
82.3147 321.00
82.3799 277.00
82.4451 293.00
82.5103 284.00
82.5755 277.00
82.6407 301.00
82.7059 293.00
82.7711 313.00
82.8363 277.00
82.9015 283.00
82.9667 287.00
83.0319 274.00
83.0971 296.00
83.1623 275.00
83.2275 315.00
83.2927 349.00
83.3579 346.00
83.4231 400.00
83.4883 411.00
83.5535 410.00
83.6187 411.00
83.6839 384.00
83.7491 420.00
83.8143 404.00
83.8795 336.00
83.9447 361.00
84.0099 356.00
84.0751 369.00
84.1403 356.00
84.2055 372.00
84.2707 366.00
84.3359 348.00
84.4011 348.00
84.4663 338.00
84.5315 354.00
84.5967 372.00
84.6619 334.00
84.7271 346.00
84.7923 300.00
84.8575 326.00
84.9227 298.00
84.9879 323.00
85.0531 299.00
85.1183 288.00
85.1835 310.00
85.2487 286.00
85.3139 289.00
85.3791 292.00
85.4443 289.00
85.5095 298.00
85.5747 289.00
85.6399 276.00
85.7051 344.00
85.7703 378.00
85.8354 341.00
85.9006 363.00
85.9659 428.00
86.031 336.00
86.0962 393.00
86.1614 351.00
86.2266 323.00
86.2918 328.00
86.357 327.00
86.4222 321.00
86.4874 298.00
86.5526 299.00
86.6178 284.00
86.683 281.00
86.7482 306.00
86.8134 278.00
86.8786 298.00
86.9438 318.00
87.009 317.00
87.0742 286.00
87.1394 296.00
87.2046 301.00
87.2698 309.00
87.335 270.00
87.4002 301.00
87.4654 303.00
87.5306 287.00
87.5958 296.00
87.661 272.00
87.7262 309.00
87.7914 301.00
87.8566 279.00
87.9218 307.00
87.987 280.00
88.0522 304.00
88.1174 289.00
88.1826 284.00
88.2478 317.00
88.313 396.00
88.3782 352.00
88.4434 331.00
88.5086 362.00
88.5738 365.00
88.639 381.00
88.7042 362.00
88.7694 344.00
88.8346 359.00
88.8998 316.00
88.965 296.00
89.0302 311.00
89.0954 339.00
89.1606 312.00
89.2258 258.00
89.291 289.00
89.3562 291.00
89.4214 298.00
89.4866 259.00
89.5518 273.00
89.617 273.00
89.6822 277.00
89.7474 285.00
89.8126 295.00
89.8778 266.00
89.943 260.00
90.0082 259.00
90.0734 276.00
90.1386 282.00
90.2038 268.00
90.269 295.00
90.3342 242.00
90.3994 265.00
90.4646 258.00
90.5298 286.00
90.595 310.00
90.6601 275.00
90.7253 295.00
90.7905 269.00
90.8557 250.00
90.9209 305.00
90.9861 277.00
91.0513 278.00
91.1165 240.00
91.1817 280.00
91.2469 259.00
91.3121 266.00
91.3773 317.00
91.4425 262.00
91.5077 322.00
91.5729 303.00
91.6381 268.00
91.7033 307.00
91.7685 284.00
91.8337 278.00
91.8989 271.00
91.9641 262.00
92.0293 305.00
92.0945 298.00
92.1597 289.00
92.2249 305.00
92.2901 302.00
92.3553 354.00
92.4205 328.00
92.4857 372.00
92.5509 355.00
92.6161 329.00
92.6813 351.00
92.7465 312.00
92.8117 311.00
92.8769 317.00
92.9421 318.00
93.0073 300.00
93.0725 325.00
93.1377 307.00
93.2029 296.00
93.2681 295.00
93.3333 294.00
93.3985 284.00
93.4637 267.00
93.5289 302.00
93.5941 293.00
93.6593 288.00
93.7245 309.00
93.7897 259.00
93.8549 290.00
93.9201 321.00
93.9853 291.00
94.0505 283.00
94.1157 271.00
94.1809 237.00
94.2461 263.00
94.3113 261.00
94.3765 279.00
94.4417 279.00
94.5069 258.00
94.5721 263.00
94.6373 263.00
94.7025 300.00
94.7677 292.00
94.8329 305.00
94.8981 258.00
94.9633 315.00
95.0285 315.00
95.0937 301.00
95.1589 281.00
95.2241 293.00
95.2893 294.00
95.3545 291.00
95.4197 278.00
95.4848 308.00
95.55 301.00
95.6153 306.00
95.6804 275.00
95.7456 281.00
95.8108 322.00
95.876 308.00
95.9412 310.00
96.0064 313.00
96.0716 298.00
96.1368 332.00
96.202 306.00
96.2672 296.00
96.3324 297.00
96.3976 310.00
96.4628 295.00
96.528 315.00
96.5932 247.00
96.6584 288.00
96.7236 309.00
96.7888 287.00
96.854 318.00
96.9192 278.00
96.9844 284.00
97.0496 279.00
97.1148 240.00
97.18 299.00
97.2452 289.00
97.3104 297.00
97.3756 286.00
97.4408 300.00
97.506 317.00
97.5712 296.00
97.6364 287.00
97.7016 290.00
97.7668 325.00
97.832 300.00
97.8972 315.00
97.9624 282.00
98.0276 269.00
98.0928 261.00
98.158 310.00
98.2232 302.00
98.2884 292.00
98.3536 301.00
98.4188 309.00
98.484 281.00
98.5492 316.00
98.6144 279.00
98.6796 315.00
98.7448 300.00
98.81 304.00
98.8752 312.00
98.9404 307.00
99.0056 317.00
99.0708 323.00
99.136 342.00
99.2012 350.00
99.2664 361.00
99.3316 342.00
99.3968 374.00
99.462 350.00
99.5272 317.00
99.5924 319.00
99.6576 333.00
99.7228 320.00
99.788 333.00
99.8532 280.00
99.9184 350.00
99.9836 292.00
99.9944 342.00