File: data/xrd_creation/results/TRI_199.xy
10.0094 2473.00
10.0746 2497.00
10.1398 2422.00
10.205 2387.00
10.2702 2258.00
10.3354 2320.00
10.4006 2412.00
10.4658 2452.00
10.531 2310.00
10.5962 2320.00
10.6614 2213.00
10.7266 2306.00
10.7918 2267.00
10.857 2304.00
10.9222 2239.00
10.9874 2150.00
11.0526 2220.00
11.1178 2149.00
11.183 2157.00
11.2482 2195.00
11.3134 2132.00
11.3786 2237.00
11.4438 2117.00
11.509 2035.00
11.5742 2162.00
11.6394 2120.00
11.7046 2051.00
11.7698 2022.00
11.835 1994.00
11.9002 1977.00
11.9654 1955.00
12.0306 2037.00
12.0958 2012.00
12.161 1956.00
12.2262 2035.00
12.2914 1960.00
12.3566 1916.00
12.4218 1946.00
12.487 1958.00
12.5522 1966.00
12.6174 1939.00
12.6826 1810.00
12.7478 1859.00
12.813 1894.00
12.8782 1917.00
12.9434 1869.00
13.0086 1847.00
13.0738 1840.00
13.139 1828.00
13.2042 1857.00
13.2694 1868.00
13.3346 1831.00
13.3998 1811.00
13.465 1662.00
13.5302 1827.00
13.5954 1770.00
13.6606 1801.00
13.7258 1818.00
13.791 1795.00
13.8562 1678.00
13.9214 1720.00
13.9865 1757.00
14.0517 1730.00
14.1169 1699.00
14.1821 1749.00
14.2473 1786.00
14.3125 1719.00
14.3777 1722.00
14.4429 1776.00
14.5081 1828.00
14.5733 1666.00
14.6385 1749.00
14.7037 1706.00
14.7689 1659.00
14.8341 1613.00
14.8993 1667.00
14.9645 1727.00
15.0297 1719.00
15.0949 1585.00
15.1601 1633.00
15.2253 1736.00
15.2905 1654.00
15.3557 1617.00
15.4209 1698.00
15.4861 1622.00
15.5513 1603.00
15.6165 1637.00
15.6817 1708.00
15.7469 1567.00
15.8121 1673.00
15.8773 1665.00
15.9425 1663.00
16.0077 1596.00
16.0729 1581.00
16.1381 1633.00
16.2033 1656.00
16.2685 1613.00
16.3337 1689.00
16.3989 1596.00
16.4641 1651.00
16.5293 1611.00
16.5945 1724.00
16.6597 1631.00
16.7249 1570.00
16.7901 1563.00
16.8553 1571.00
16.9205 1567.00
16.9857 1563.00
17.0509 1600.00
17.1161 1614.00
17.1813 1462.00
17.2465 1505.00
17.3117 1572.00
17.3769 1542.00
17.4421 1598.00
17.5073 1575.00
17.5725 1461.00
17.6377 1565.00
17.7029 1545.00
17.7681 1451.00
17.8333 1565.00
17.8985 1588.00
17.9637 1595.00
18.0289 1608.00
18.0941 1775.00
18.1593 1800.00
18.2245 1976.00
18.2897 2140.00
18.3549 2107.00
18.4201 1731.00
18.4853 1532.00
18.5505 1528.00
18.6157 1534.00
18.6809 1574.00
18.7461 1526.00
18.8112 1439.00
18.8764 1484.00
18.9416 1442.00
19.0068 1450.00
19.072 1458.00
19.1372 1439.00
19.2024 1458.00
19.2676 1428.00
19.3328 1490.00
19.398 1438.00
19.4632 1445.00
19.5284 1461.00
19.5936 1374.00
19.6588 1395.00
19.724 1415.00
19.7892 1368.00
19.8544 1414.00
19.9196 1449.00
19.9848 1452.00
20.05 1450.00
20.1152 1307.00
20.1804 1453.00
20.2456 1435.00
20.3108 1413.00
20.376 1355.00
20.4412 1439.00
20.5064 1424.00
20.5716 1329.00
20.6368 1324.00
20.702 1356.00
20.7672 1334.00
20.8324 1318.00
20.8976 1341.00
20.9628 1371.00
21.028 1391.00
21.0932 1381.00
21.1584 1392.00
21.2236 1377.00
21.2888 1308.00
21.354 1279.00
21.4192 1353.00
21.4844 1292.00
21.5496 1321.00
21.6148 1374.00
21.68 1294.00
21.7452 1349.00
21.8104 1297.00
21.8756 1344.00
21.9408 1311.00
22.006 1248.00
22.0712 1302.00
22.1364 1364.00
22.2016 1327.00
22.2668 1363.00
22.332 1340.00
22.3972 1365.00
22.4624 1346.00
22.5276 1279.00
22.5928 1241.00
22.658 1258.00
22.7232 1291.00
22.7884 1272.00
22.8536 1282.00
22.9188 1244.00
22.984 1230.00
23.0492 1344.00
23.1144 1273.00
23.1796 1256.00
23.2448 1235.00
23.31 1232.00
23.3752 1261.00
23.4404 1292.00
23.5056 1235.00
23.5708 1275.00
23.6359 1203.00
23.7011 1296.00
23.7663 1298.00
23.8315 1311.00
23.8967 1270.00
23.9619 1329.00
24.0271 1305.00
24.0923 1251.00
24.1575 1273.00
24.2227 1276.00
24.2879 1254.00
24.3531 1318.00
24.4183 1258.00
24.4835 1361.00
24.5487 1291.00
24.6139 1363.00
24.6791 1310.00
24.7443 1228.00
24.8095 1247.00
24.8747 1191.00
24.9399 1235.00
25.0051 1191.00
25.0703 1228.00
25.1355 1208.00
25.2007 1173.00
25.2659 1246.00
25.3311 1190.00
25.3963 1241.00
25.4615 1179.00
25.5267 1192.00
25.5919 1203.00
25.6571 1165.00
25.7223 1181.00
25.7875 1184.00
25.8527 1181.00
25.9179 1161.00
25.9831 1201.00
26.0483 1206.00
26.1135 1155.00
26.1787 1233.00
26.2439 1146.00
26.3091 1158.00
26.3743 1115.00
26.4395 1162.00
26.5047 1182.00
26.5699 1160.00
26.6351 1120.00
26.7003 1153.00
26.7655 1182.00
26.8307 1168.00
26.8959 1175.00
26.9611 1205.00
27.0263 1148.00
27.0915 1198.00
27.1567 1167.00
27.2219 1118.00
27.2871 1136.00
27.3523 1160.00
27.4175 1157.00
27.4827 1200.00
27.5479 1160.00
27.6131 1143.00
27.6783 1139.00
27.7435 1101.00
27.8087 1140.00
27.8739 1166.00
27.9391 1153.00
28.0043 1136.00
28.0695 1157.00
28.1347 1125.00
28.1999 1154.00
28.2651 1096.00
28.3303 1105.00
28.3955 1145.00
28.4606 1138.00
28.5258 1113.00
28.591 1108.00
28.6562 1153.00
28.7214 1075.00
28.7866 1075.00
28.8518 1122.00
28.917 1144.00
28.9822 1099.00
29.0474 1127.00
29.1126 1161.00
29.1778 1116.00
29.243 1167.00
29.3082 1124.00
29.3734 1179.00
29.4386 1244.00
29.5038 1252.00
29.569 1301.00
29.6342 1407.00
29.6994 1714.00
29.7646 2053.00
29.8298 2625.00
29.895 3282.00
29.9602 3049.00
30.0254 2056.00
30.0906 1505.00
30.1558 1375.00
30.221 1175.00
30.2862 1122.00
30.3514 1152.00
30.4166 1122.00
30.4818 1134.00
30.547 1134.00
30.6122 1139.00
30.6774 1053.00
30.7426 1151.00
30.8078 1069.00
30.873 1110.00
30.9382 1054.00
31.0034 1136.00
31.0686 1063.00
31.1338 1068.00
31.199 1051.00
31.2642 1117.00
31.3294 1116.00
31.3946 1071.00
31.4598 1068.00
31.525 1089.00
31.5902 1049.00
31.6554 1087.00
31.7206 1055.00
31.7858 1030.00
31.851 1065.00
31.9162 1054.00
31.9814 1063.00
32.0466 1155.00
32.1118 1063.00
32.177 1069.00
32.2422 1042.00
32.3074 1117.00
32.3726 1045.00
32.4378 1047.00
32.503 1047.00
32.5682 1082.00
32.6334 993.00
32.6986 1064.00
32.7638 1023.00
32.829 1004.00
32.8942 1067.00
32.9594 1061.00
33.0246 1027.00
33.0898 1119.00
33.1549 1131.00
33.2201 1194.00
33.2853 1212.00
33.3505 1163.00
33.4157 1136.00
33.4809 1125.00
33.5461 1055.00
33.6113 1094.00
33.6765 1041.00
33.7417 967.00
33.8069 1070.00
33.8721 1010.00
33.9373 1053.00
34.0025 1027.00
34.0677 1077.00
34.1329 1117.00
34.1981 1104.00
34.2633 1083.00
34.3285 1157.00
34.3937 1135.00
34.4589 1210.00
34.5241 1330.00
34.5893 1369.00
34.6545 1458.00
34.7197 1560.00
34.7849 1694.00
34.8501 2043.00
34.9153 2434.00
34.9805 3255.00
35.0457 4467.00
35.1109 6455.00
35.1761 7793.00
35.2413 6252.00
35.3065 3874.00
35.3717 2336.00
35.4369 1757.00
35.5021 1530.00
35.5673 1374.00
35.6325 1220.00
35.6977 1199.00
35.7629 1187.00
35.8281 1167.00
35.8933 1166.00
35.9585 1065.00
36.0237 1117.00
36.0889 1137.00
36.1541 1087.00
36.2193 1080.00
36.2845 1074.00
36.3497 1189.00
36.4149 1197.00
36.4801 1245.00
36.5453 1240.00
36.6105 1213.00
36.6757 1295.00
36.7409 1322.00
36.8061 1273.00
36.8713 1177.00
36.9365 1119.00
37.0017 1038.00
37.0669 1030.00
37.1321 941.00
37.1973 1054.00
37.2625 1040.00
37.3277 1020.00
37.3929 1044.00
37.4581 1057.00
37.5233 1001.00
37.5885 936.00
37.6537 1030.00
37.7189 985.00
37.7841 1004.00
37.8493 1019.00
37.9145 1005.00
37.9796 949.00
38.0448 939.00
38.11 970.00
38.1752 961.00
38.2404 965.00
38.3056 1015.00
38.3708 940.00
38.436 974.00
38.5012 938.00
38.5664 991.00
38.6316 960.00
38.6968 949.00
38.762 942.00
38.8272 955.00
38.8924 981.00
38.9576 960.00
39.0228 977.00
39.088 942.00
39.1532 982.00
39.2184 915.00
39.2836 983.00
39.3488 946.00
39.414 965.00
39.4792 978.00
39.5444 949.00
39.6096 925.00
39.6748 912.00
39.74 1006.00
39.8052 951.00
39.8704 970.00
39.9356 978.00
40.0008 955.00
40.066 988.00
40.1312 945.00
40.1964 967.00
40.2616 978.00
40.3268 1014.00
40.392 1011.00
40.4572 978.00
40.5224 1005.00
40.5876 994.00
40.6528 1008.00
40.718 1065.00
40.7832 1105.00
40.8484 1231.00
40.9136 1156.00
40.9788 1192.00
41.044 1094.00
41.1092 1052.00
41.1744 1086.00
41.2396 1082.00
41.3048 1086.00
41.37 1083.00
41.4352 1096.00
41.5004 1073.00
41.5656 1070.00
41.6308 1055.00
41.696 1053.00
41.7612 1045.00
41.8264 1011.00
41.8916 1051.00
41.9568 1036.00
42.022 1069.00
42.0872 1068.00
42.1524 1014.00
42.2176 1101.00
42.2828 1165.00
42.348 1221.00
42.4132 1277.00
42.4784 1396.00
42.5436 1650.00
42.6088 2120.00
42.6739 2288.00
42.7392 1983.00
42.8043 1633.00
42.8695 1315.00
42.9347 1099.00
42.9999 994.00
43.0651 961.00
43.1303 1004.00
43.1955 1034.00
43.2607 1025.00
43.3259 955.00
43.3911 902.00
43.4563 952.00
43.5215 953.00
43.5867 927.00
43.6519 961.00
43.7171 927.00
43.7823 900.00
43.8475 914.00
43.9127 951.00
43.9779 934.00
44.0431 961.00
44.1083 937.00
44.1735 937.00
44.2387 939.00
44.3039 913.00
44.3691 981.00
44.4343 951.00
44.4995 933.00
44.5647 870.00
44.6299 865.00
44.6951 949.00
44.7603 918.00
44.8255 918.00
44.8907 915.00
44.9559 909.00
45.0211 928.00
45.0863 895.00
45.1515 918.00
45.2167 880.00
45.2819 897.00
45.3471 905.00
45.4123 895.00
45.4775 922.00
45.5427 927.00
45.6079 901.00
45.6731 975.00
45.7383 936.00
45.8035 926.00
45.8687 898.00
45.9339 907.00
45.9991 884.00
46.0643 913.00
46.1295 937.00
46.1947 908.00
46.2599 919.00
46.3251 955.00
46.3903 912.00
46.4555 967.00
46.5207 945.00
46.5859 899.00
46.6511 970.00
46.7163 957.00
46.7815 940.00
46.8467 933.00
46.9119 938.00
46.9771 934.00
47.0423 870.00
47.1075 886.00
47.1727 930.00
47.2379 905.00
47.3031 901.00
47.3683 900.00
47.4335 920.00
47.4986 957.00
47.5639 909.00
47.629 848.00
47.6942 867.00
47.7594 945.00
47.8246 917.00
47.8898 886.00
47.955 882.00
48.0202 878.00
48.0854 907.00
48.1506 920.00
48.2158 910.00
48.281 891.00
48.3462 918.00
48.4114 886.00
48.4766 880.00
48.5418 908.00
48.607 908.00
48.6722 940.00
48.7374 912.00
48.8026 915.00
48.8678 861.00
48.933 911.00
48.9982 946.00
49.0634 875.00
49.1286 889.00
49.1938 934.00
49.259 895.00
49.3242 896.00
49.3894 869.00
49.4546 858.00
49.5198 896.00
49.585 875.00
49.6502 879.00
49.7154 897.00
49.7806 954.00
49.8458 940.00
49.911 988.00
49.9762 1000.00
50.0414 916.00
50.1066 973.00
50.1718 966.00
50.237 935.00
50.3022 968.00
50.3674 929.00
50.4326 911.00
50.4978 931.00
50.563 959.00
50.6282 893.00
50.6934 968.00
50.7586 919.00
50.8238 871.00
50.889 926.00
50.9542 910.00
51.0194 902.00
51.0846 895.00
51.1498 951.00
51.215 917.00
51.2802 961.00
51.3454 889.00
51.4106 879.00
51.4758 868.00
51.541 890.00
51.6062 857.00
51.6714 940.00
51.7366 874.00
51.8018 930.00
51.867 887.00
51.9322 916.00
51.9974 961.00
52.0626 914.00
52.1278 925.00
52.193 921.00
52.2582 936.00
52.3233 913.00
52.3886 946.00
52.4537 1035.00
52.5189 991.00
52.5841 1056.00
52.6493 1116.00
52.7145 1307.00
52.7797 1447.00
52.8449 1475.00
52.9101 1357.00
52.9753 1230.00
53.0405 1092.00
53.1057 1000.00
53.1709 974.00
53.2361 939.00
53.3013 878.00
53.3665 919.00
53.4317 952.00
53.4969 913.00
53.5621 939.00
53.6273 925.00
53.6925 992.00
53.7577 961.00
53.8229 940.00
53.8881 991.00
53.9533 1008.00
54.0185 989.00
54.0837 1059.00
54.1489 1065.00
54.2141 1056.00
54.2793 1086.00
54.3445 979.00
54.4097 1018.00
54.4749 978.00
54.5401 1000.00
54.6053 979.00
54.6705 959.00
54.7357 930.00
54.8009 898.00
54.8661 975.00
54.9313 978.00
54.9965 957.00
55.0617 983.00
55.1269 935.00
55.1921 982.00
55.2573 1022.00
55.3225 975.00
55.3877 947.00
55.4529 996.00
55.5181 978.00
55.5833 1031.00
55.6485 1093.00
55.7137 1077.00
55.7789 1141.00
55.8441 1176.00
55.9093 1247.00
55.9745 1344.00
56.0397 1588.00
56.1049 1683.00
56.1701 2221.00
56.2353 2696.00
56.3005 2879.00
56.3657 2437.00
56.4309 2124.00
56.4961 1734.00
56.5613 1428.00
56.6265 1159.00
56.6917 1135.00
56.7569 1071.00
56.8221 1031.00
56.8873 1017.00
56.9525 1026.00
57.0177 1004.00
57.0829 962.00
57.148 947.00
57.2132 971.00
57.2784 968.00
57.3436 911.00
57.4088 921.00
57.474 978.00
57.5392 920.00
57.6044 946.00
57.6696 898.00
57.7348 982.00
57.8 945.00
57.8652 939.00
57.9304 923.00
57.9956 900.00
58.0608 935.00
58.126 900.00
58.1912 925.00
58.2564 1010.00
58.3216 942.00
58.3868 952.00
58.452 929.00
58.5172 915.00
58.5824 1012.00
58.6476 948.00
58.7128 967.00
58.778 1010.00
58.8432 986.00
58.9084 1038.00
58.9736 1031.00
59.0388 1027.00
59.104 996.00
59.1692 1037.00
59.2344 993.00
59.2996 984.00
59.3648 1009.00
59.43 928.00
59.4952 1006.00
59.5604 933.00
59.6256 973.00
59.6908 1000.00
59.756 964.00
59.8212 991.00
59.8864 891.00
59.9516 930.00
60.0168 948.00
60.082 965.00
60.1472 923.00
60.2124 964.00
60.2776 928.00
60.3428 957.00
60.408 910.00
60.4732 921.00
60.5384 908.00
60.6036 949.00
60.6688 946.00
60.734 962.00
60.7992 987.00
60.8644 963.00
60.9296 1028.00
60.9948 1101.00
61.06 1151.00
61.1252 1122.00
61.1904 1141.00
61.2556 1279.00
61.3208 1366.00
61.386 1445.00
61.4512 1581.00
61.5164 1718.00
61.5816 1959.00
61.6468 2478.00
61.712 3191.00
61.7772 3284.00
61.8424 2576.00
61.9076 2274.00
61.9727 1904.00
62.0379 1485.00
62.1031 1256.00
62.1683 1191.00
62.2335 1051.00
62.2987 1012.00
62.3639 925.00
62.4291 1011.00
62.4943 982.00
62.5595 973.00
62.6247 989.00
62.6899 968.00
62.7551 911.00
62.8203 969.00
62.8855 921.00
62.9507 973.00
63.0159 944.00
63.0811 896.00
63.1463 957.00
63.2115 977.00
63.2767 955.00
63.3419 964.00
63.4071 1021.00
63.4723 914.00
63.5375 937.00
63.6027 922.00
63.6679 963.00
63.7331 950.00
63.7983 926.00
63.8635 879.00
63.9287 913.00
63.9939 892.00
64.0591 934.00
64.1243 904.00
64.1895 941.00
64.2547 958.00
64.3199 925.00
64.3851 980.00
64.4503 924.00
64.5155 905.00
64.5807 943.00
64.6459 986.00
64.7111 957.00
64.7763 956.00
64.8415 1011.00
64.9067 996.00
64.9719 896.00
65.0371 958.00
65.1023 960.00
65.1675 981.00
65.2327 966.00
65.2979 983.00
65.3631 946.00
65.4283 985.00
65.4935 965.00
65.5587 951.00
65.6239 948.00
65.6891 888.00
65.7543 880.00
65.8195 883.00
65.8847 933.00
65.9499 886.00
66.0151 856.00
66.0803 880.00
66.1455 906.00
66.2107 931.00
66.2759 917.00
66.3411 915.00
66.4063 920.00
66.4715 936.00
66.5367 933.00
66.6019 927.00
66.6671 952.00
66.7322 926.00
66.7974 910.00
66.8626 956.00
66.9278 921.00
66.993 859.00
67.0582 858.00
67.1234 855.00
67.1886 976.00
67.2538 931.00
67.319 904.00
67.3842 898.00
67.4494 928.00
67.5146 920.00
67.5798 924.00
67.645 928.00
67.7102 920.00
67.7754 969.00
67.8406 874.00
67.9058 959.00
67.971 908.00
68.0362 904.00
68.1014 950.00
68.1666 847.00
68.2318 962.00
68.297 934.00
68.3622 864.00
68.4274 948.00
68.4926 962.00
68.5578 949.00
68.623 913.00
68.6882 890.00
68.7534 886.00
68.8186 899.00
68.8838 875.00
68.949 914.00
69.0142 905.00
69.0794 906.00
69.1446 877.00
69.2098 932.00
69.275 966.00
69.3402 897.00
69.4054 949.00
69.4706 949.00
69.5358 960.00
69.601 928.00
69.6662 941.00
69.7314 1000.00
69.7966 972.00
69.8618 1024.00
69.927 1034.00
69.9922 1007.00
70.0574 970.00
70.1226 1043.00
70.1878 889.00
70.253 1005.00
70.3182 944.00
70.3834 995.00
70.4486 944.00
70.5138 960.00
70.579 986.00
70.6442 949.00
70.7094 894.00
70.7746 928.00
70.8398 909.00
70.905 962.00
70.9702 969.00
71.0354 994.00
71.1006 875.00
71.1658 924.00
71.231 966.00
71.2962 923.00
71.3614 932.00
71.4266 965.00
71.4918 969.00
71.5569 929.00
71.6221 991.00
71.6873 960.00
71.7525 959.00
71.8177 943.00
71.8829 885.00
71.9481 937.00
72.0133 929.00
72.0785 952.00
72.1437 919.00
72.2089 956.00
72.2741 970.00
72.3393 1019.00
72.4045 1013.00
72.4697 988.00
72.5349 1023.00
72.6001 1055.00
72.6653 1012.00
72.7305 1066.00
72.7957 1221.00
72.8609 1324.00
72.9261 1325.00
72.9913 1273.00
73.0565 1258.00
73.1217 1233.00
73.1869 1134.00
73.2521 1040.00
73.3173 1032.00
73.3825 1033.00
73.4477 956.00
73.5129 1020.00
73.5781 971.00
73.6433 1024.00
73.7085 1017.00
73.7737 1039.00
73.8389 1058.00
73.9041 1085.00
73.9693 1117.00
74.0345 1057.00
74.0997 1062.00
74.1649 1001.00
74.2301 1015.00
74.2953 973.00
74.3605 960.00
74.4257 906.00
74.4909 975.00
74.5561 943.00
74.6213 930.00
74.6865 937.00
74.7517 906.00
74.8169 906.00
74.8821 923.00
74.9473 916.00
75.0125 944.00
75.0777 964.00
75.1429 912.00
75.2081 907.00
75.2733 885.00
75.3385 966.00
75.4037 935.00
75.4689 958.00
75.5341 924.00
75.5993 973.00
75.6645 917.00
75.7297 906.00
75.7949 920.00
75.8601 859.00
75.9253 898.00
75.9905 919.00
76.0557 964.00
76.1209 880.00
76.186 913.00
76.2513 866.00
76.3165 866.00
76.3816 957.00
76.4468 893.00
76.512 925.00
76.5772 895.00
76.6424 899.00
76.7076 897.00
76.7728 970.00
76.838 932.00
76.9032 924.00
76.9684 885.00
77.0336 916.00
77.0988 881.00
77.164 938.00
77.2292 897.00
77.2944 927.00
77.3596 1005.00
77.4248 944.00
77.49 957.00
77.5552 1003.00
77.6204 966.00
77.6856 1040.00
77.7508 1055.00
77.816 1015.00
77.8812 991.00
77.9464 1036.00
78.0116 978.00
78.0768 974.00
78.142 949.00
78.2072 931.00
78.2724 899.00
78.3376 890.00
78.4028 870.00
78.468 885.00
78.5332 904.00
78.5984 838.00
78.6636 980.00
78.7288 914.00
78.794 931.00
78.8592 892.00
78.9244 1002.00
78.9896 924.00
79.0548 931.00
79.12 894.00
79.1852 889.00
79.2504 922.00
79.3156 960.00
79.3808 941.00
79.446 931.00
79.5112 922.00
79.5764 892.00
79.6416 888.00
79.7068 930.00
79.772 882.00
79.8372 907.00
79.9024 944.00
79.9676 897.00
80.0328 884.00
80.098 853.00
80.1632 952.00
80.2284 972.00
80.2936 969.00
80.3588 939.00
80.424 966.00
80.4892 956.00
80.5544 943.00
80.6196 943.00
80.6848 967.00
80.75 937.00
80.8152 965.00
80.8804 923.00
80.9456 936.00
81.0108 918.00
81.076 937.00
81.1412 878.00
81.2063 884.00
81.2715 869.00
81.3367 962.00
81.4019 891.00
81.4671 892.00
81.5323 929.00
81.5975 948.00
81.6627 918.00
81.7279 880.00
81.7931 883.00
81.8583 1017.00
81.9235 904.00
81.9887 916.00
82.0539 899.00
82.1191 967.00
82.1843 955.00
82.2495 951.00
82.3147 918.00
82.3799 932.00
82.4451 975.00
82.5103 953.00
82.5755 881.00
82.6407 932.00
82.7059 939.00
82.7711 939.00
82.8363 950.00
82.9015 953.00
82.9667 907.00
83.0319 941.00
83.0971 870.00
83.1623 895.00
83.2275 992.00
83.2927 903.00
83.3579 924.00
83.4231 909.00
83.4883 912.00
83.5535 914.00
83.6187 898.00
83.6839 961.00
83.7491 942.00
83.8143 913.00
83.8795 925.00
83.9447 922.00
84.0099 937.00
84.0751 924.00
84.1403 983.00
84.2055 947.00
84.2707 890.00
84.3359 989.00
84.4011 979.00
84.4663 1001.00
84.5315 938.00
84.5967 908.00
84.6619 931.00
84.7271 1013.00
84.7923 914.00
84.8575 978.00
84.9227 915.00
84.9879 987.00
85.0531 959.00
85.1183 986.00
85.1835 979.00
85.2487 1164.00
85.3139 1142.00
85.3791 1030.00
85.4443 1078.00
85.5095 1049.00
85.5747 1045.00
85.6399 941.00
85.7051 995.00
85.7703 988.00
85.8354 960.00
85.9006 926.00
85.9659 948.00
86.031 928.00
86.0962 950.00
86.1614 963.00
86.2266 932.00
86.2918 958.00
86.357 1013.00
86.4222 1004.00
86.4874 971.00
86.5526 980.00
86.6178 950.00
86.683 953.00
86.7482 1004.00
86.8134 895.00
86.8786 933.00
86.9438 924.00
87.009 988.00
87.0742 967.00
87.1394 948.00
87.2046 995.00
87.2698 965.00
87.335 981.00
87.4002 935.00
87.4654 1019.00
87.5306 1000.00
87.5958 1025.00
87.661 1087.00
87.7262 1055.00
87.7914 1058.00
87.8566 1123.00
87.9218 1219.00
87.987 1239.00
88.0522 1367.00
88.1174 1410.00
88.1826 1425.00
88.2478 1418.00
88.313 1315.00
88.3782 1315.00
88.4434 1225.00
88.5086 1166.00
88.5738 1080.00
88.639 1084.00
88.7042 942.00
88.7694 926.00
88.8346 1029.00
88.8998 921.00
88.965 958.00
89.0302 1001.00
89.0954 956.00
89.1606 1029.00
89.2258 975.00
89.291 946.00
89.3562 951.00
89.4214 1007.00
89.4866 995.00
89.5518 988.00
89.617 941.00
89.6822 954.00
89.7474 955.00
89.8126 941.00
89.8778 954.00
89.943 976.00
90.0082 953.00
90.0734 974.00
90.1386 973.00
90.2038 960.00
90.269 967.00
90.3342 977.00
90.3994 943.00
90.4646 894.00
90.5298 918.00
90.595 960.00
90.6601 937.00
90.7253 923.00
90.7905 909.00
90.8557 912.00
90.9209 979.00
90.9861 936.00
91.0513 951.00
91.1165 927.00
91.1817 967.00
91.2469 970.00
91.3121 932.00
91.3773 959.00
91.4425 986.00
91.5077 1002.00
91.5729 972.00
91.6381 957.00
91.7033 931.00
91.7685 970.00
91.8337 867.00
91.8989 965.00
91.9641 908.00
92.0293 907.00
92.0945 911.00
92.1597 957.00
92.2249 914.00
92.2901 1024.00
92.3553 982.00
92.4205 990.00
92.4857 989.00
92.5509 974.00
92.6161 1054.00
92.6813 1085.00
92.7465 1128.00
92.8117 1142.00
92.8769 1090.00
92.9421 1114.00
93.0073 1081.00
93.0725 1082.00
93.1377 1081.00
93.2029 1072.00
93.2681 1027.00
93.3333 1016.00
93.3985 1033.00
93.4637 983.00
93.5289 944.00
93.5941 943.00
93.6593 944.00
93.7245 1001.00
93.7897 954.00
93.8549 987.00
93.9201 933.00
93.9853 950.00
94.0505 916.00
94.1157 889.00
94.1809 929.00
94.2461 937.00
94.3113 1036.00
94.3765 925.00
94.4417 908.00
94.5069 938.00
94.5721 944.00
94.6373 960.00
94.7025 972.00
94.7677 975.00
94.8329 918.00
94.8981 918.00
94.9633 987.00
95.0285 990.00
95.0937 925.00
95.1589 913.00
95.2241 874.00
95.2893 935.00
95.3545 942.00
95.4197 861.00
95.4848 965.00
95.55 985.00
95.6153 926.00
95.6804 991.00
95.7456 997.00
95.8108 913.00
95.876 901.00
95.9412 987.00
96.0064 921.00
96.0716 968.00
96.1368 942.00
96.202 946.00
96.2672 935.00
96.3324 1019.00
96.3976 907.00
96.4628 913.00
96.528 960.00
96.5932 919.00
96.6584 912.00
96.7236 974.00
96.7888 940.00
96.854 1004.00
96.9192 965.00
96.9844 988.00
97.0496 971.00
97.1148 957.00
97.18 944.00
97.2452 968.00
97.3104 989.00
97.3756 962.00
97.4408 952.00
97.506 895.00
97.5712 908.00
97.6364 946.00
97.7016 947.00
97.7668 935.00
97.832 955.00
97.8972 950.00
97.9624 929.00
98.0276 1018.00
98.0928 953.00
98.158 940.00
98.2232 964.00
98.2884 904.00
98.3536 975.00
98.4188 947.00
98.484 953.00
98.5492 917.00
98.6144 927.00
98.6796 986.00
98.7448 934.00
98.81 979.00
98.8752 965.00
98.9404 911.00
99.0056 1013.00
99.0708 957.00
99.136 968.00
99.2012 985.00
99.2664 931.00
99.3316 992.00
99.3968 974.00
99.462 963.00
99.5272 991.00
99.5924 954.00
99.6576 921.00
99.7228 984.00
99.788 976.00
99.8532 980.00
99.9184 915.00
99.9836 1004.00
99.9944 952.00