File: data/xrd_creation/results/TRI_195.xy
10.0094 2362.00
10.0746 2247.00
10.1398 2278.00
10.205 2350.00
10.2702 2263.00
10.3354 2320.00
10.4006 2240.00
10.4658 2225.00
10.531 2122.00
10.5962 2161.00
10.6614 2140.00
10.7266 2153.00
10.7918 2135.00
10.857 2123.00
10.9222 2085.00
10.9874 2075.00
11.0526 2026.00
11.1178 2024.00
11.183 1960.00
11.2482 1989.00
11.3134 1932.00
11.3786 1941.00
11.4438 1950.00
11.509 1910.00
11.5742 1923.00
11.6394 1820.00
11.7046 1912.00
11.7698 1922.00
11.835 1974.00
11.9002 1993.00
11.9654 1888.00
12.0306 1952.00
12.0958 1887.00
12.161 1812.00
12.2262 1769.00
12.2914 1920.00
12.3566 1889.00
12.4218 1912.00
12.487 1765.00
12.5522 1763.00
12.6174 1743.00
12.6826 1693.00
12.7478 1751.00
12.813 1727.00
12.8782 1685.00
12.9434 1619.00
13.0086 1646.00
13.0738 1661.00
13.139 1700.00
13.2042 1619.00
13.2694 1662.00
13.3346 1617.00
13.3998 1560.00
13.465 1544.00
13.5302 1546.00
13.5954 1537.00
13.6606 1509.00
13.7258 1434.00
13.791 1425.00
13.8562 1454.00
13.9214 1459.00
13.9865 1449.00
14.0517 1569.00
14.1169 1467.00
14.1821 1487.00
14.2473 1503.00
14.3125 1364.00
14.3777 1453.00
14.4429 1377.00
14.5081 1377.00
14.5733 1355.00
14.6385 1397.00
14.7037 1386.00
14.7689 1391.00
14.8341 1432.00
14.8993 1421.00
14.9645 1325.00
15.0297 1385.00
15.0949 1342.00
15.1601 1289.00
15.2253 1331.00
15.2905 1286.00
15.3557 1227.00
15.4209 1274.00
15.4861 1359.00
15.5513 1265.00
15.6165 1273.00
15.6817 1321.00
15.7469 1328.00
15.8121 1364.00
15.8773 1330.00
15.9425 1260.00
16.0077 1271.00
16.0729 1296.00
16.1381 1225.00
16.2033 1369.00
16.2685 1283.00
16.3337 1311.00
16.3989 1404.00
16.4641 1486.00
16.5293 1743.00
16.5945 1780.00
16.6597 1834.00
16.7249 1766.00
16.7901 1672.00
16.8553 1548.00
16.9205 1304.00
16.9857 1249.00
17.0509 1228.00
17.1161 1276.00
17.1813 1216.00
17.2465 1174.00
17.3117 1180.00
17.3769 1135.00
17.4421 1153.00
17.5073 1103.00
17.5725 1175.00
17.6377 1159.00
17.7029 1129.00
17.7681 1160.00
17.8333 1120.00
17.8985 1147.00
17.9637 1162.00
18.0289 1202.00
18.0941 1160.00
18.1593 1214.00
18.2245 1258.00
18.2897 1212.00
18.3549 1243.00
18.4201 1304.00
18.4853 1435.00
18.5505 1592.00
18.6157 1710.00
18.6809 1853.00
18.7461 1663.00
18.8112 1457.00
18.8764 1380.00
18.9416 1271.00
19.0068 1225.00
19.072 1187.00
19.1372 1139.00
19.2024 1074.00
19.2676 1066.00
19.3328 1019.00
19.398 997.00
19.4632 1001.00
19.5284 938.00
19.5936 1004.00
19.6588 1000.00
19.724 1007.00
19.7892 995.00
19.8544 1003.00
19.9196 984.00
19.9848 1011.00
20.05 1030.00
20.1152 968.00
20.1804 1045.00
20.2456 1021.00
20.3108 1021.00
20.376 992.00
20.4412 961.00
20.5064 988.00
20.5716 957.00
20.6368 938.00
20.702 922.00
20.7672 938.00
20.8324 918.00
20.8976 934.00
20.9628 939.00
21.028 1013.00
21.0932 979.00
21.1584 953.00
21.2236 1003.00
21.2888 998.00
21.354 975.00
21.4192 1013.00
21.4844 996.00
21.5496 958.00
21.6148 973.00
21.68 1002.00
21.7452 918.00
21.8104 887.00
21.8756 967.00
21.9408 854.00
22.006 893.00
22.0712 920.00
22.1364 883.00
22.2016 867.00
22.2668 860.00
22.332 928.00
22.3972 845.00
22.4624 870.00
22.5276 853.00
22.5928 932.00
22.658 930.00
22.7232 862.00
22.7884 868.00
22.8536 914.00
22.9188 906.00
22.984 918.00
23.0492 843.00
23.1144 801.00
23.1796 755.00
23.2448 810.00
23.31 799.00
23.3752 821.00
23.4404 825.00
23.5056 802.00
23.5708 822.00
23.6359 854.00
23.7011 882.00
23.7663 835.00
23.8315 846.00
23.8967 887.00
23.9619 822.00
24.0271 824.00
24.0923 807.00
24.1575 779.00
24.2227 814.00
24.2879 840.00
24.3531 844.00
24.4183 803.00
24.4835 854.00
24.5487 760.00
24.6139 809.00
24.6791 766.00
24.7443 778.00
24.8095 793.00
24.8747 785.00
24.9399 767.00
25.0051 831.00
25.0703 784.00
25.1355 727.00
25.2007 761.00
25.2659 720.00
25.3311 734.00
25.3963 790.00
25.4615 758.00
25.5267 748.00
25.5919 718.00
25.6571 783.00
25.7223 739.00
25.7875 773.00
25.8527 801.00
25.9179 752.00
25.9831 819.00
26.0483 755.00
26.1135 807.00
26.1787 859.00
26.2439 801.00
26.3091 777.00
26.3743 756.00
26.4395 842.00
26.5047 956.00
26.5699 1255.00
26.6351 1427.00
26.7003 1551.00
26.7655 1600.00
26.8307 1442.00
26.8959 1042.00
26.9611 842.00
27.0263 765.00
27.0915 694.00
27.1567 741.00
27.2219 718.00
27.2871 689.00
27.3523 656.00
27.4175 729.00
27.4827 770.00
27.5479 899.00
27.6131 976.00
27.6783 1086.00
27.7435 1198.00
27.8087 1177.00
27.8739 998.00
27.9391 889.00
28.0043 870.00
28.0695 801.00
28.1347 766.00
28.1999 790.00
28.2651 829.00
28.3303 760.00
28.3955 703.00
28.4606 736.00
28.5258 653.00
28.591 696.00
28.6562 713.00
28.7214 766.00
28.7866 795.00
28.8518 814.00
28.917 927.00
28.9822 972.00
29.0474 1140.00
29.1126 1295.00
29.1778 1308.00
29.243 1433.00
29.3082 1375.00
29.3734 1105.00
29.4386 887.00
29.5038 808.00
29.569 734.00
29.6342 674.00
29.6994 709.00
29.7646 686.00
29.8298 706.00
29.895 748.00
29.9602 784.00
30.0254 827.00
30.0906 915.00
30.1558 929.00
30.221 905.00
30.2862 844.00
30.3514 684.00
30.4166 710.00
30.4818 637.00
30.547 592.00
30.6122 596.00
30.6774 607.00
30.7426 625.00
30.8078 588.00
30.873 570.00
30.9382 626.00
31.0034 665.00
31.0686 653.00
31.1338 789.00
31.199 922.00
31.2642 1179.00
31.3294 1138.00
31.3946 1136.00
31.4598 1038.00
31.525 880.00
31.5902 709.00
31.6554 618.00
31.7206 569.00
31.7858 593.00
31.851 594.00
31.9162 577.00
31.9814 660.00
32.0466 643.00
32.1118 658.00
32.177 655.00
32.2422 727.00
32.3074 745.00
32.3726 843.00
32.4378 998.00
32.503 1097.00
32.5682 1085.00
32.6334 867.00
32.6986 762.00
32.7638 720.00
32.829 662.00
32.8942 612.00
32.9594 589.00
33.0246 594.00
33.0898 545.00
33.1549 553.00
33.2201 551.00
33.2853 563.00
33.3505 574.00
33.4157 552.00
33.4809 504.00
33.5461 489.00
33.6113 476.00
33.6765 503.00
33.7417 435.00
33.8069 510.00
33.8721 509.00
33.9373 464.00
34.0025 492.00
34.0677 491.00
34.1329 532.00
34.1981 469.00
34.2633 513.00
34.3285 459.00
34.3937 482.00
34.4589 513.00
34.5241 468.00
34.5893 521.00
34.6545 502.00
34.7197 508.00
34.7849 487.00
34.8501 526.00
34.9153 475.00
34.9805 525.00
35.0457 483.00
35.1109 459.00
35.1761 574.00
35.2413 611.00
35.3065 596.00
35.3717 648.00
35.4369 513.00
35.5021 531.00
35.5673 499.00
35.6325 503.00
35.6977 521.00
35.7629 478.00
35.8281 440.00
35.8933 539.00
35.9585 525.00
36.0237 527.00
36.0889 556.00
36.1541 526.00
36.2193 487.00
36.2845 501.00
36.3497 516.00
36.4149 503.00
36.4801 471.00
36.5453 447.00
36.6105 432.00
36.6757 433.00
36.7409 461.00
36.8061 418.00
36.8713 496.00
36.9365 505.00
37.0017 467.00
37.0669 475.00
37.1321 478.00
37.1973 434.00
37.2625 470.00
37.3277 457.00
37.3929 465.00
37.4581 498.00
37.5233 482.00
37.5885 463.00
37.6537 491.00
37.7189 467.00
37.7841 478.00
37.8493 521.00
37.9145 494.00
37.9796 479.00
38.0448 468.00
38.11 434.00
38.1752 449.00
38.2404 443.00
38.3056 501.00
38.3708 473.00
38.436 504.00
38.5012 488.00
38.5664 478.00
38.6316 495.00
38.6968 464.00
38.762 470.00
38.8272 490.00
38.8924 478.00
38.9576 532.00
39.0228 485.00
39.088 486.00
39.1532 426.00
39.2184 432.00
39.2836 386.00
39.3488 421.00
39.414 422.00
39.4792 397.00
39.5444 418.00
39.6096 396.00
39.6748 389.00
39.74 399.00
39.8052 426.00
39.8704 369.00
39.9356 402.00
40.0008 411.00
40.066 437.00
40.1312 394.00
40.1964 404.00
40.2616 384.00
40.3268 420.00
40.392 396.00
40.4572 424.00
40.5224 444.00
40.5876 406.00
40.6528 374.00
40.718 416.00
40.7832 486.00
40.8484 466.00
40.9136 518.00
40.9788 531.00
41.044 511.00
41.1092 443.00
41.1744 422.00
41.2396 382.00
41.3048 369.00
41.37 349.00
41.4352 386.00
41.5004 371.00
41.5656 402.00
41.6308 425.00
41.696 445.00
41.7612 395.00
41.8264 372.00
41.8916 391.00
41.9568 397.00
42.022 358.00
42.0872 350.00
42.1524 413.00
42.2176 415.00
42.2828 405.00
42.348 393.00
42.4132 379.00
42.4784 366.00
42.5436 388.00
42.6088 340.00
42.6739 395.00
42.7392 393.00
42.8043 402.00
42.8695 385.00
42.9347 392.00
42.9999 401.00
43.0651 433.00
43.1303 454.00
43.1955 473.00
43.2607 493.00
43.3259 510.00
43.3911 572.00
43.4563 547.00
43.5215 526.00
43.5867 433.00
43.6519 465.00
43.7171 407.00
43.7823 356.00
43.8475 383.00
43.9127 426.00
43.9779 406.00
44.0431 448.00
44.1083 461.00
44.1735 473.00
44.2387 389.00
44.3039 375.00
44.3691 356.00
44.4343 377.00
44.4995 349.00
44.5647 364.00
44.6299 389.00
44.6951 382.00
44.7603 374.00
44.8255 403.00
44.8907 362.00
44.9559 355.00
45.0211 391.00
45.0863 396.00
45.1515 384.00
45.2167 420.00
45.2819 402.00
45.3471 407.00
45.4123 400.00
45.4775 440.00
45.5427 382.00
45.6079 385.00
45.6731 377.00
45.7383 350.00
45.8035 432.00
45.8687 485.00
45.9339 470.00
45.9991 514.00
46.0643 561.00
46.1295 534.00
46.1947 664.00
46.2599 693.00
46.3251 728.00
46.3903 648.00
46.4555 556.00
46.5207 404.00
46.5859 390.00
46.6511 392.00
46.7163 377.00
46.7815 356.00
46.8467 344.00
46.9119 333.00
46.9771 367.00
47.0423 381.00
47.1075 404.00
47.1727 382.00
47.2379 365.00
47.3031 393.00
47.3683 375.00
47.4335 376.00
47.4986 354.00
47.5639 386.00
47.629 401.00
47.6942 434.00
47.7594 444.00
47.8246 480.00
47.8898 449.00
47.955 441.00
48.0202 403.00
48.0854 374.00
48.1506 343.00
48.2158 338.00
48.281 342.00
48.3462 373.00
48.4114 399.00
48.4766 381.00
48.5418 345.00
48.607 387.00
48.6722 391.00
48.7374 377.00
48.8026 414.00
48.8678 428.00
48.933 463.00
48.9982 498.00
49.0634 565.00
49.1286 510.00
49.1938 471.00
49.259 453.00
49.3242 400.00
49.3894 365.00
49.4546 367.00
49.5198 346.00
49.585 405.00
49.6502 392.00
49.7154 423.00
49.7806 397.00
49.8458 455.00
49.911 446.00
49.9762 400.00
50.0414 470.00
50.1066 392.00
50.1718 412.00
50.237 419.00
50.3022 358.00
50.3674 347.00
50.4326 389.00
50.4978 406.00
50.563 519.00
50.6282 526.00
50.6934 547.00
50.7586 551.00
50.8238 489.00
50.889 515.00
50.9542 449.00
51.0194 445.00
51.0846 446.00
51.1498 376.00
51.215 406.00
51.2802 418.00
51.3454 501.00
51.4106 490.00
51.4758 540.00
51.541 472.00
51.6062 438.00
51.6714 395.00
51.7366 414.00
51.8018 345.00
51.867 377.00
51.9322 365.00
51.9974 345.00
52.0626 384.00
52.1278 358.00
52.193 396.00
52.2582 384.00
52.3233 415.00
52.3886 385.00
52.4537 384.00
52.5189 374.00
52.5841 360.00
52.6493 359.00
52.7145 334.00
52.7797 339.00
52.8449 333.00
52.9101 324.00
52.9753 323.00
53.0405 326.00
53.1057 320.00
53.1709 297.00
53.2361 303.00
53.3013 348.00
53.3665 282.00
53.4317 355.00
53.4969 330.00
53.5621 386.00
53.6273 375.00
53.6925 388.00
53.7577 424.00
53.8229 385.00
53.8881 392.00
53.9533 396.00
54.0185 378.00
54.0837 469.00
54.1489 454.00
54.2141 452.00
54.2793 396.00
54.3445 399.00
54.4097 426.00
54.4749 427.00
54.5401 418.00
54.6053 364.00
54.6705 373.00
54.7357 357.00
54.8009 354.00
54.8661 368.00
54.9313 388.00
54.9965 425.00
55.0617 426.00
55.1269 399.00
55.1921 351.00
55.2573 365.00
55.3225 352.00
55.3877 334.00
55.4529 325.00
55.5181 333.00
55.5833 353.00
55.6485 380.00
55.7137 364.00
55.7789 413.00
55.8441 468.00
55.9093 447.00
55.9745 459.00
56.0397 408.00
56.1049 343.00
56.1701 362.00
56.2353 305.00
56.3005 314.00
56.3657 298.00
56.4309 322.00
56.4961 307.00
56.5613 293.00
56.6265 324.00
56.6917 338.00
56.7569 314.00
56.8221 322.00
56.8873 330.00
56.9525 331.00
57.0177 359.00
57.0829 359.00
57.148 396.00
57.2132 354.00
57.2784 434.00
57.3436 411.00
57.4088 444.00
57.474 446.00
57.5392 394.00
57.6044 399.00
57.6696 416.00
57.7348 368.00
57.8 345.00
57.8652 331.00
57.9304 332.00
57.9956 371.00
58.0608 355.00
58.126 355.00
58.1912 373.00
58.2564 359.00
58.3216 386.00
58.3868 313.00
58.452 397.00
58.5172 395.00
58.5824 373.00
58.6476 395.00
58.7128 386.00
58.778 359.00
58.8432 365.00
58.9084 367.00
58.9736 352.00
59.0388 346.00
59.104 346.00
59.1692 338.00
59.2344 352.00
59.2996 385.00
59.3648 422.00
59.43 379.00
59.4952 374.00
59.5604 349.00
59.6256 343.00
59.6908 337.00
59.756 317.00
59.8212 336.00
59.8864 347.00
59.9516 353.00
60.0168 419.00
60.082 397.00
60.1472 427.00
60.2124 383.00
60.2776 404.00
60.3428 369.00
60.408 405.00
60.4732 352.00
60.5384 352.00
60.6036 378.00
60.6688 376.00
60.734 387.00
60.7992 360.00
60.8644 336.00
60.9296 332.00
60.9948 374.00
61.06 374.00
61.1252 420.00
61.1904 423.00
61.2556 444.00
61.3208 458.00
61.386 407.00
61.4512 397.00
61.5164 368.00
61.5816 359.00
61.6468 379.00
61.712 304.00
61.7772 273.00
61.8424 334.00
61.9076 309.00
61.9727 340.00
62.0379 312.00
62.1031 279.00
62.1683 326.00
62.2335 347.00
62.2987 290.00
62.3639 356.00
62.4291 312.00
62.4943 330.00
62.5595 333.00
62.6247 324.00
62.6899 337.00
62.7551 327.00
62.8203 347.00
62.8855 294.00
62.9507 322.00
63.0159 319.00
63.0811 379.00
63.1463 325.00
63.2115 366.00
63.2767 384.00
63.3419 380.00
63.4071 348.00
63.4723 378.00
63.5375 379.00
63.6027 335.00
63.6679 330.00
63.7331 378.00
63.7983 330.00
63.8635 313.00
63.9287 363.00
63.9939 350.00
64.0591 330.00
64.1243 351.00
64.1895 336.00
64.2547 334.00
64.3199 340.00
64.3851 317.00
64.4503 322.00
64.5155 296.00
64.5807 336.00
64.6459 311.00
64.7111 356.00
64.7763 307.00
64.8415 334.00
64.9067 370.00
64.9719 390.00
65.0371 422.00
65.1023 415.00
65.1675 390.00
65.2327 413.00
65.2979 356.00
65.3631 347.00
65.4283 354.00
65.4935 326.00
65.5587 338.00
65.6239 362.00
65.6891 368.00
65.7543 404.00
65.8195 421.00
65.8847 399.00
65.9499 396.00
66.0151 383.00
66.0803 375.00
66.1455 437.00
66.2107 441.00
66.2759 462.00
66.3411 386.00
66.4063 384.00
66.4715 418.00
66.5367 379.00
66.6019 355.00
66.6671 384.00
66.7322 371.00
66.7974 343.00
66.8626 322.00
66.9278 330.00
66.993 384.00
67.0582 356.00
67.1234 338.00
67.1886 322.00
67.2538 340.00
67.319 358.00
67.3842 339.00
67.4494 321.00
67.5146 349.00
67.5798 349.00
67.645 368.00
67.7102 347.00
67.7754 378.00
67.8406 350.00
67.9058 341.00
67.971 343.00
68.0362 358.00
68.1014 328.00
68.1666 340.00
68.2318 387.00
68.297 389.00
68.3622 357.00
68.4274 337.00
68.4926 336.00
68.5578 337.00
68.623 358.00
68.6882 338.00
68.7534 408.00
68.8186 384.00
68.8838 403.00
68.949 365.00
69.0142 433.00
69.0794 366.00
69.1446 349.00
69.2098 320.00
69.275 368.00
69.3402 350.00
69.4054 334.00
69.4706 312.00
69.5358 322.00
69.601 343.00
69.6662 398.00
69.7314 359.00
69.7966 338.00
69.8618 348.00
69.927 404.00
69.9922 330.00
70.0574 356.00
70.1226 389.00
70.1878 380.00
70.253 365.00
70.3182 337.00
70.3834 345.00
70.4486 325.00
70.5138 357.00
70.579 415.00
70.6442 423.00
70.7094 407.00
70.7746 398.00
70.8398 415.00
70.905 368.00
70.9702 357.00
71.0354 337.00
71.1006 343.00
71.1658 319.00
71.231 328.00
71.2962 320.00
71.3614 364.00
71.4266 276.00
71.4918 282.00
71.5569 301.00
71.6221 309.00
71.6873 341.00
71.7525 288.00
71.8177 327.00
71.8829 302.00
71.9481 301.00
72.0133 311.00
72.0785 288.00
72.1437 295.00
72.2089 271.00
72.2741 291.00
72.3393 335.00
72.4045 282.00
72.4697 305.00
72.5349 291.00
72.6001 291.00
72.6653 260.00
72.7305 288.00
72.7957 314.00
72.8609 261.00
72.9261 292.00
72.9913 295.00
73.0565 309.00
73.1217 305.00
73.1869 319.00
73.2521 287.00
73.3173 282.00
73.3825 307.00
73.4477 335.00
73.5129 312.00
73.5781 305.00
73.6433 341.00
73.7085 385.00
73.7737 360.00
73.8389 415.00
73.9041 363.00
73.9693 370.00
74.0345 355.00
74.0997 344.00
74.1649 319.00
74.2301 334.00
74.2953 293.00
74.3605 322.00
74.4257 302.00
74.4909 292.00
74.5561 315.00
74.6213 352.00
74.6865 314.00
74.7517 326.00
74.8169 326.00
74.8821 329.00
74.9473 281.00
75.0125 308.00
75.0777 320.00
75.1429 334.00
75.2081 325.00
75.2733 364.00
75.3385 401.00
75.4037 419.00
75.4689 374.00
75.5341 362.00
75.5993 365.00
75.6645 338.00
75.7297 313.00
75.7949 315.00
75.8601 322.00
75.9253 331.00
75.9905 311.00
76.0557 354.00
76.1209 326.00
76.186 288.00
76.2513 327.00
76.3165 303.00
76.3816 313.00
76.4468 300.00
76.512 297.00
76.5772 317.00
76.6424 309.00
76.7076 302.00
76.7728 315.00
76.838 302.00
76.9032 297.00
76.9684 316.00
77.0336 329.00
77.0988 312.00
77.164 326.00
77.2292 332.00
77.2944 344.00
77.3596 295.00
77.4248 309.00
77.49 315.00
77.5552 289.00
77.6204 312.00
77.6856 281.00
77.7508 312.00
77.816 321.00
77.8812 327.00
77.9464 318.00
78.0116 357.00
78.0768 334.00
78.142 319.00
78.2072 279.00
78.2724 324.00
78.3376 303.00
78.4028 300.00
78.468 284.00
78.5332 311.00
78.5984 274.00
78.6636 293.00
78.7288 257.00
78.794 301.00
78.8592 311.00
78.9244 342.00
78.9896 336.00
79.0548 318.00
79.12 323.00
79.1852 302.00
79.2504 312.00
79.3156 283.00
79.3808 281.00
79.446 295.00
79.5112 298.00
79.5764 325.00
79.6416 338.00
79.7068 295.00
79.772 277.00
79.8372 315.00
79.9024 298.00
79.9676 299.00
80.0328 314.00
80.098 321.00
80.1632 287.00
80.2284 296.00
80.2936 336.00
80.3588 293.00
80.424 305.00
80.4892 299.00
80.5544 290.00
80.6196 302.00
80.6848 303.00
80.75 339.00
80.8152 321.00
80.8804 307.00
80.9456 336.00
81.0108 303.00
81.076 331.00
81.1412 313.00
81.2063 316.00
81.2715 340.00
81.3367 317.00
81.4019 319.00
81.4671 324.00
81.5323 344.00
81.5975 292.00
81.6627 280.00
81.7279 267.00
81.7931 334.00
81.8583 282.00
81.9235 263.00
81.9887 284.00
82.0539 268.00
82.1191 275.00
82.1843 308.00
82.2495 295.00
82.3147 274.00
82.3799 297.00
82.4451 278.00
82.5103 305.00
82.5755 299.00
82.6407 297.00
82.7059 330.00
82.7711 306.00
82.8363 286.00
82.9015 302.00
82.9667 317.00
83.0319 298.00
83.0971 301.00
83.1623 292.00
83.2275 283.00
83.2927 271.00
83.3579 249.00
83.4231 267.00
83.4883 282.00
83.5535 302.00
83.6187 309.00
83.6839 296.00
83.7491 287.00
83.8143 305.00
83.8795 269.00
83.9447 320.00
84.0099 279.00
84.0751 284.00
84.1403 266.00
84.2055 314.00
84.2707 231.00
84.3359 301.00
84.4011 277.00
84.4663 276.00
84.5315 286.00
84.5967 288.00
84.6619 287.00
84.7271 258.00
84.7923 294.00
84.8575 275.00
84.9227 284.00
84.9879 301.00
85.0531 298.00
85.1183 325.00
85.1835 285.00
85.2487 304.00
85.3139 287.00
85.3791 295.00
85.4443 278.00
85.5095 288.00
85.5747 283.00
85.6399 267.00
85.7051 272.00
85.7703 300.00
85.8354 277.00
85.9006 262.00
85.9659 281.00
86.031 269.00
86.0962 315.00
86.1614 281.00
86.2266 324.00
86.2918 303.00
86.357 338.00
86.4222 298.00
86.4874 281.00
86.5526 334.00
86.6178 338.00
86.683 358.00
86.7482 354.00
86.8134 326.00
86.8786 319.00
86.9438 325.00
87.009 399.00
87.0742 367.00
87.1394 309.00
87.2046 325.00
87.2698 319.00
87.335 339.00
87.4002 295.00
87.4654 298.00
87.5306 311.00
87.5958 276.00
87.661 289.00
87.7262 311.00
87.7914 290.00
87.8566 311.00
87.9218 286.00
87.987 309.00
88.0522 293.00
88.1174 310.00
88.1826 312.00
88.2478 297.00
88.313 320.00
88.3782 302.00
88.4434 289.00
88.5086 319.00
88.5738 314.00
88.639 291.00
88.7042 282.00
88.7694 303.00
88.8346 280.00
88.8998 271.00
88.965 304.00
89.0302 295.00
89.0954 264.00
89.1606 273.00
89.2258 295.00
89.291 307.00
89.3562 271.00
89.4214 284.00
89.4866 315.00
89.5518 316.00
89.617 341.00
89.6822 313.00
89.7474 359.00
89.8126 325.00
89.8778 292.00
89.943 324.00
90.0082 313.00
90.0734 275.00
90.1386 299.00
90.2038 306.00
90.269 269.00
90.3342 268.00
90.3994 274.00
90.4646 284.00
90.5298 277.00
90.595 283.00
90.6601 260.00
90.7253 266.00
90.7905 270.00
90.8557 287.00
90.9209 279.00
90.9861 259.00
91.0513 282.00
91.1165 285.00
91.1817 307.00
91.2469 270.00
91.3121 279.00
91.3773 295.00
91.4425 280.00
91.5077 267.00
91.5729 327.00
91.6381 301.00
91.7033 294.00
91.7685 328.00
91.8337 286.00
91.8989 294.00
91.9641 305.00
92.0293 338.00
92.0945 324.00
92.1597 332.00
92.2249 317.00
92.2901 346.00
92.3553 330.00
92.4205 314.00
92.4857 277.00
92.5509 314.00
92.6161 287.00
92.6813 313.00
92.7465 295.00
92.8117 304.00
92.8769 320.00
92.9421 312.00
93.0073 288.00
93.0725 317.00
93.1377 319.00
93.2029 311.00
93.2681 302.00
93.3333 294.00
93.3985 320.00
93.4637 349.00
93.5289 309.00
93.5941 304.00
93.6593 340.00
93.7245 331.00
93.7897 370.00
93.8549 330.00
93.9201 315.00
93.9853 326.00
94.0505 303.00
94.1157 312.00
94.1809 311.00
94.2461 313.00
94.3113 290.00
94.3765 301.00
94.4417 319.00
94.5069 329.00
94.5721 295.00
94.6373 269.00
94.7025 269.00
94.7677 261.00
94.8329 312.00
94.8981 312.00
94.9633 305.00
95.0285 312.00
95.0937 292.00
95.1589 295.00
95.2241 322.00
95.2893 274.00
95.3545 293.00
95.4197 284.00
95.4848 282.00
95.55 271.00
95.6153 264.00
95.6804 285.00
95.7456 296.00
95.8108 262.00
95.876 294.00
95.9412 249.00
96.0064 299.00
96.0716 305.00
96.1368 296.00
96.202 274.00
96.2672 316.00
96.3324 316.00
96.3976 312.00
96.4628 315.00
96.528 273.00
96.5932 272.00
96.6584 287.00
96.7236 282.00
96.7888 283.00
96.854 299.00
96.9192 286.00
96.9844 317.00
97.0496 273.00
97.1148 294.00
97.18 323.00
97.2452 309.00
97.3104 267.00
97.3756 278.00
97.4408 268.00
97.506 311.00
97.5712 321.00
97.6364 280.00
97.7016 306.00
97.7668 329.00
97.832 335.00
97.8972 296.00
97.9624 311.00
98.0276 323.00
98.0928 287.00
98.158 296.00
98.2232 313.00
98.2884 281.00
98.3536 295.00
98.4188 325.00
98.484 295.00
98.5492 299.00
98.6144 277.00
98.6796 297.00
98.7448 290.00
98.81 270.00
98.8752 302.00
98.9404 262.00
99.0056 270.00
99.0708 295.00
99.136 301.00
99.2012 291.00
99.2664 305.00
99.3316 292.00
99.3968 316.00
99.462 293.00
99.5272 278.00
99.5924 274.00
99.6576 279.00
99.7228 304.00
99.788 291.00
99.8532 298.00
99.9184 261.00
99.9836 269.00
99.9944 295.00