File: data/xrd_creation/results/TRI_194.xy
10.0094 2385.00
10.0746 2379.00
10.1398 2304.00
10.205 2334.00
10.2702 2296.00
10.3354 2299.00
10.4006 2220.00
10.4658 2211.00
10.531 2184.00
10.5962 2201.00
10.6614 2150.00
10.7266 2248.00
10.7918 2157.00
10.857 2071.00
10.9222 2149.00
10.9874 2071.00
11.0526 2116.00
11.1178 2087.00
11.183 2088.00
11.2482 2067.00
11.3134 1939.00
11.3786 1942.00
11.4438 1917.00
11.509 2055.00
11.5742 1955.00
11.6394 1928.00
11.7046 1984.00
11.7698 1947.00
11.835 1926.00
11.9002 1873.00
11.9654 1805.00
12.0306 1802.00
12.0958 1863.00
12.161 1808.00
12.2262 1849.00
12.2914 1919.00
12.3566 1824.00
12.4218 1754.00
12.487 1723.00
12.5522 1734.00
12.6174 1699.00
12.6826 1764.00
12.7478 1688.00
12.813 1673.00
12.8782 1647.00
12.9434 1725.00
13.0086 1715.00
13.0738 1649.00
13.139 1607.00
13.2042 1675.00
13.2694 1580.00
13.3346 1562.00
13.3998 1640.00
13.465 1708.00
13.5302 1600.00
13.5954 1579.00
13.6606 1545.00
13.7258 1576.00
13.791 1565.00
13.8562 1601.00
13.9214 1537.00
13.9865 1550.00
14.0517 1520.00
14.1169 1561.00
14.1821 1530.00
14.2473 1519.00
14.3125 1567.00
14.3777 1594.00
14.4429 1592.00
14.5081 1557.00
14.5733 1551.00
14.6385 1474.00
14.7037 1511.00
14.7689 1486.00
14.8341 1485.00
14.8993 1414.00
14.9645 1457.00
15.0297 1514.00
15.0949 1414.00
15.1601 1516.00
15.2253 1550.00
15.2905 1414.00
15.3557 1414.00
15.4209 1477.00
15.4861 1400.00
15.5513 1381.00
15.6165 1405.00
15.6817 1393.00
15.7469 1461.00
15.8121 1385.00
15.8773 1434.00
15.9425 1426.00
16.0077 1341.00
16.0729 1384.00
16.1381 1357.00
16.2033 1376.00
16.2685 1389.00
16.3337 1326.00
16.3989 1356.00
16.4641 1311.00
16.5293 1389.00
16.5945 1335.00
16.6597 1383.00
16.7249 1316.00
16.7901 1313.00
16.8553 1354.00
16.9205 1301.00
16.9857 1264.00
17.0509 1364.00
17.1161 1281.00
17.1813 1305.00
17.2465 1271.00
17.3117 1287.00
17.3769 1306.00
17.4421 1342.00
17.5073 1303.00
17.5725 1285.00
17.6377 1259.00
17.7029 1235.00
17.7681 1287.00
17.8333 1299.00
17.8985 1274.00
17.9637 1263.00
18.0289 1301.00
18.0941 1269.00
18.1593 1272.00
18.2245 1272.00
18.2897 1260.00
18.3549 1221.00
18.4201 1151.00
18.4853 1201.00
18.5505 1230.00
18.6157 1242.00
18.6809 1218.00
18.7461 1205.00
18.8112 1149.00
18.8764 1155.00
18.9416 1187.00
19.0068 1199.00
19.072 1184.00
19.1372 1139.00
19.2024 1211.00
19.2676 1175.00
19.3328 1171.00
19.398 1195.00
19.4632 1119.00
19.5284 1100.00
19.5936 1131.00
19.6588 1121.00
19.724 1150.00
19.7892 1199.00
19.8544 1162.00
19.9196 1222.00
19.9848 1202.00
20.05 1244.00
20.1152 1322.00
20.1804 1332.00
20.2456 1334.00
20.3108 1403.00
20.376 1357.00
20.4412 1156.00
20.5064 1076.00
20.5716 1143.00
20.6368 1177.00
20.702 1178.00
20.7672 1173.00
20.8324 1151.00
20.8976 1194.00
20.9628 1119.00
21.028 1101.00
21.0932 1084.00
21.1584 1073.00
21.2236 1040.00
21.2888 1117.00
21.354 1091.00
21.4192 1053.00
21.4844 1085.00
21.5496 1043.00
21.6148 1109.00
21.68 991.00
21.7452 1031.00
21.8104 1001.00
21.8756 1052.00
21.9408 981.00
22.006 1095.00
22.0712 1083.00
22.1364 1003.00
22.2016 966.00
22.2668 981.00
22.332 1029.00
22.3972 963.00
22.4624 985.00
22.5276 993.00
22.5928 1014.00
22.658 1047.00
22.7232 995.00
22.7884 1015.00
22.8536 980.00
22.9188 1076.00
22.984 931.00
23.0492 931.00
23.1144 934.00
23.1796 970.00
23.2448 931.00
23.31 948.00
23.3752 971.00
23.4404 903.00
23.5056 942.00
23.5708 945.00
23.6359 916.00
23.7011 922.00
23.7663 956.00
23.8315 894.00
23.8967 915.00
23.9619 916.00
24.0271 926.00
24.0923 928.00
24.1575 929.00
24.2227 955.00
24.2879 938.00
24.3531 948.00
24.4183 974.00
24.4835 914.00
24.5487 922.00
24.6139 878.00
24.6791 924.00
24.7443 906.00
24.8095 879.00
24.8747 906.00
24.9399 847.00
25.0051 934.00
25.0703 874.00
25.1355 947.00
25.2007 952.00
25.2659 957.00
25.3311 999.00
25.3963 1031.00
25.4615 1041.00
25.5267 1109.00
25.5919 1099.00
25.6571 1043.00
25.7223 958.00
25.7875 986.00
25.8527 886.00
25.9179 814.00
25.9831 879.00
26.0483 847.00
26.1135 877.00
26.1787 872.00
26.2439 846.00
26.3091 872.00
26.3743 881.00
26.4395 908.00
26.5047 915.00
26.5699 873.00
26.6351 945.00
26.7003 891.00
26.7655 961.00
26.8307 1010.00
26.8959 1086.00
26.9611 1097.00
27.0263 1140.00
27.0915 1355.00
27.1567 1259.00
27.2219 1365.00
27.2871 1495.00
27.3523 1693.00
27.4175 1791.00
27.4827 1932.00
27.5479 1829.00
27.6131 1288.00
27.6783 1079.00
27.7435 1243.00
27.8087 1317.00
27.8739 1445.00
27.9391 1547.00
28.0043 1769.00
28.0695 1939.00
28.1347 1990.00
28.1999 1817.00
28.2651 1903.00
28.3303 2046.00
28.3955 2085.00
28.4606 1872.00
28.5258 1241.00
28.591 980.00
28.6562 916.00
28.7214 907.00
28.7866 949.00
28.8518 1044.00
28.917 1131.00
28.9822 1190.00
29.0474 1273.00
29.1126 1356.00
29.1778 1426.00
29.243 1244.00
29.3082 1251.00
29.3734 1435.00
29.4386 1649.00
29.5038 1857.00
29.569 1946.00
29.6342 2102.00
29.6994 1788.00
29.7646 1155.00
29.8298 873.00
29.895 827.00
29.9602 870.00
30.0254 789.00
30.0906 816.00
30.1558 879.00
30.221 856.00
30.2862 820.00
30.3514 888.00
30.4166 823.00
30.4818 806.00
30.547 761.00
30.6122 754.00
30.6774 751.00
30.7426 769.00
30.8078 816.00
30.873 743.00
30.9382 753.00
31.0034 723.00
31.0686 702.00
31.1338 754.00
31.199 769.00
31.2642 755.00
31.3294 692.00
31.3946 789.00
31.4598 725.00
31.525 728.00
31.5902 739.00
31.6554 755.00
31.7206 717.00
31.7858 741.00
31.851 719.00
31.9162 699.00
31.9814 706.00
32.0466 720.00
32.1118 724.00
32.177 748.00
32.2422 716.00
32.3074 765.00
32.3726 757.00
32.4378 765.00
32.503 777.00
32.5682 877.00
32.6334 1008.00
32.6986 1089.00
32.7638 1335.00
32.829 1488.00
32.8942 1609.00
32.9594 1687.00
33.0246 1351.00
33.0898 987.00
33.1549 744.00
33.2201 740.00
33.2853 789.00
33.3505 772.00
33.4157 723.00
33.4809 834.00
33.5461 823.00
33.6113 806.00
33.6765 823.00
33.7417 822.00
33.8069 792.00
33.8721 689.00
33.9373 690.00
34.0025 685.00
34.0677 718.00
34.1329 712.00
34.1981 662.00
34.2633 735.00
34.3285 648.00
34.3937 723.00
34.4589 696.00
34.5241 605.00
34.5893 661.00
34.6545 633.00
34.7197 674.00
34.7849 688.00
34.8501 657.00
34.9153 685.00
34.9805 654.00
35.0457 655.00
35.1109 658.00
35.1761 638.00
35.2413 687.00
35.3065 627.00
35.3717 708.00
35.4369 731.00
35.5021 698.00
35.5673 735.00
35.6325 708.00
35.6977 692.00
35.7629 659.00
35.8281 704.00
35.8933 658.00
35.9585 680.00
36.0237 687.00
36.0889 666.00
36.1541 661.00
36.2193 658.00
36.2845 741.00
36.3497 714.00
36.4149 640.00
36.4801 723.00
36.5453 640.00
36.6105 671.00
36.6757 698.00
36.7409 742.00
36.8061 721.00
36.8713 848.00
36.9365 876.00
37.0017 984.00
37.0669 1053.00
37.1321 1133.00
37.1973 1075.00
37.2625 1050.00
37.3277 873.00
37.3929 761.00
37.4581 644.00
37.5233 621.00
37.5885 632.00
37.6537 635.00
37.7189 628.00
37.7841 636.00
37.8493 635.00
37.9145 665.00
37.9796 636.00
38.0448 659.00
38.11 651.00
38.1752 615.00
38.2404 633.00
38.3056 629.00
38.3708 640.00
38.436 646.00
38.5012 691.00
38.5664 759.00
38.6316 893.00
38.6968 1010.00
38.762 1104.00
38.8272 1263.00
38.8924 1396.00
38.9576 1213.00
39.0228 1006.00
39.088 773.00
39.1532 649.00
39.2184 671.00
39.2836 617.00
39.3488 612.00
39.414 627.00
39.4792 633.00
39.5444 585.00
39.6096 611.00
39.6748 634.00
39.74 609.00
39.8052 623.00
39.8704 605.00
39.9356 670.00
40.0008 662.00
40.066 660.00
40.1312 642.00
40.1964 644.00
40.2616 616.00
40.3268 605.00
40.392 631.00
40.4572 700.00
40.5224 706.00
40.5876 710.00
40.6528 762.00
40.718 720.00
40.7832 844.00
40.8484 762.00
40.9136 780.00
40.9788 818.00
41.044 816.00
41.1092 757.00
41.1744 691.00
41.2396 642.00
41.3048 634.00
41.37 658.00
41.4352 614.00
41.5004 608.00
41.5656 619.00
41.6308 624.00
41.696 619.00
41.7612 687.00
41.8264 703.00
41.8916 758.00
41.9568 730.00
42.022 844.00
42.0872 895.00
42.1524 829.00
42.2176 877.00
42.2828 890.00
42.348 961.00
42.4132 915.00
42.4784 908.00
42.5436 772.00
42.6088 689.00
42.6739 666.00
42.7392 674.00
42.8043 653.00
42.8695 601.00
42.9347 621.00
42.9999 667.00
43.0651 605.00
43.1303 659.00
43.1955 674.00
43.2607 627.00
43.3259 611.00
43.3911 649.00
43.4563 691.00
43.5215 766.00
43.5867 854.00
43.6519 875.00
43.7171 907.00
43.7823 865.00
43.8475 788.00
43.9127 633.00
43.9779 643.00
44.0431 565.00
44.1083 547.00
44.1735 552.00
44.2387 614.00
44.3039 573.00
44.3691 600.00
44.4343 591.00
44.4995 546.00
44.5647 569.00
44.6299 586.00
44.6951 562.00
44.7603 579.00
44.8255 610.00
44.8907 626.00
44.9559 666.00
45.0211 534.00
45.0863 610.00
45.1515 583.00
45.2167 586.00
45.2819 596.00
45.3471 582.00
45.4123 542.00
45.4775 595.00
45.5427 636.00
45.6079 707.00
45.6731 755.00
45.7383 791.00
45.8035 726.00
45.8687 725.00
45.9339 644.00
45.9991 614.00
46.0643 606.00
46.1295 572.00
46.1947 543.00
46.2599 574.00
46.3251 601.00
46.3903 548.00
46.4555 558.00
46.5207 596.00
46.5859 572.00
46.6511 584.00
46.7163 586.00
46.7815 635.00
46.8467 590.00
46.9119 551.00
46.9771 586.00
47.0423 593.00
47.1075 577.00
47.1727 650.00
47.2379 674.00
47.3031 709.00
47.3683 772.00
47.4335 803.00
47.4986 830.00
47.5639 702.00
47.629 753.00
47.6942 638.00
47.7594 735.00
47.8246 713.00
47.8898 859.00
47.955 959.00
48.0202 881.00
48.0854 753.00
48.1506 741.00
48.2158 659.00
48.281 699.00
48.3462 796.00
48.4114 830.00
48.4766 824.00
48.5418 903.00
48.607 804.00
48.6722 652.00
48.7374 618.00
48.8026 621.00
48.8678 592.00
48.933 572.00
48.9982 594.00
49.0634 582.00
49.1286 560.00
49.1938 556.00
49.259 580.00
49.3242 556.00
49.3894 583.00
49.4546 633.00
49.5198 637.00
49.585 629.00
49.6502 662.00
49.7154 703.00
49.7806 624.00
49.8458 621.00
49.911 582.00
49.9762 512.00
50.0414 558.00
50.1066 574.00
50.1718 538.00
50.237 576.00
50.3022 526.00
50.3674 602.00
50.4326 551.00
50.4978 574.00
50.563 573.00
50.6282 591.00
50.6934 568.00
50.7586 574.00
50.8238 581.00
50.889 520.00
50.9542 523.00
51.0194 564.00
51.0846 549.00
51.1498 567.00
51.215 589.00
51.2802 579.00
51.3454 612.00
51.4106 567.00
51.4758 588.00
51.541 605.00
51.6062 720.00
51.6714 794.00
51.7366 967.00
51.8018 1026.00
51.867 1180.00
51.9322 1227.00
51.9974 977.00
52.0626 847.00
52.1278 635.00
52.193 659.00
52.2582 577.00
52.3233 594.00
52.3886 589.00
52.4537 558.00
52.5189 571.00
52.5841 580.00
52.6493 529.00
52.7145 584.00
52.7797 563.00
52.8449 591.00
52.9101 532.00
52.9753 572.00
53.0405 584.00
53.1057 618.00
53.1709 582.00
53.2361 631.00
53.3013 596.00
53.3665 548.00
53.4317 557.00
53.4969 549.00
53.5621 633.00
53.6273 579.00
53.6925 626.00
53.7577 591.00
53.8229 618.00
53.8881 580.00
53.9533 609.00
54.0185 613.00
54.0837 564.00
54.1489 559.00
54.2141 538.00
54.2793 624.00
54.3445 663.00
54.4097 620.00
54.4749 733.00
54.5401 695.00
54.6053 642.00
54.6705 644.00
54.7357 617.00
54.8009 597.00
54.8661 542.00
54.9313 558.00
54.9965 537.00
55.0617 577.00
55.1269 579.00
55.1921 630.00
55.2573 628.00
55.3225 657.00
55.3877 754.00
55.4529 806.00
55.5181 906.00
55.5833 962.00
55.6485 960.00
55.7137 1040.00
55.7789 1086.00
55.8441 1046.00
55.9093 1040.00
55.9745 916.00
56.0397 765.00
56.1049 754.00
56.1701 655.00
56.2353 683.00
56.3005 623.00
56.3657 634.00
56.4309 593.00
56.4961 572.00
56.5613 545.00
56.6265 577.00
56.6917 530.00
56.7569 571.00
56.8221 568.00
56.8873 578.00
56.9525 569.00
57.0177 605.00
57.0829 556.00
57.148 617.00
57.2132 648.00
57.2784 644.00
57.3436 644.00
57.4088 640.00
57.474 689.00
57.5392 802.00
57.6044 745.00
57.6696 876.00
57.7348 872.00
57.8 853.00
57.8652 778.00
57.9304 731.00
57.9956 633.00
58.0608 580.00
58.126 596.00
58.1912 579.00
58.2564 550.00
58.3216 577.00
58.3868 618.00
58.452 619.00
58.5172 612.00
58.5824 567.00
58.6476 591.00
58.7128 606.00
58.778 580.00
58.8432 562.00
58.9084 560.00
58.9736 590.00
59.0388 539.00
59.104 582.00
59.1692 593.00
59.2344 591.00
59.2996 594.00
59.3648 601.00
59.43 586.00
59.4952 627.00
59.5604 576.00
59.6256 658.00
59.6908 648.00
59.756 716.00
59.8212 850.00
59.8864 1028.00
59.9516 1224.00
60.0168 1117.00
60.082 1093.00
60.1472 1027.00
60.2124 835.00
60.2776 750.00
60.3428 668.00
60.408 589.00
60.4732 673.00
60.5384 710.00
60.6036 809.00
60.6688 851.00
60.734 999.00
60.7992 1031.00
60.8644 899.00
60.9296 860.00
60.9948 914.00
61.06 897.00
61.1252 1037.00
61.1904 1243.00
61.2556 1294.00
61.3208 1203.00
61.386 1006.00
61.4512 975.00
61.5164 851.00
61.5816 731.00
61.6468 749.00
61.712 810.00
61.7772 840.00
61.8424 771.00
61.9076 716.00
61.9727 701.00
62.0379 620.00
62.1031 602.00
62.1683 620.00
62.2335 596.00
62.2987 601.00
62.3639 617.00
62.4291 524.00
62.4943 531.00
62.5595 576.00
62.6247 594.00
62.6899 533.00
62.7551 550.00
62.8203 563.00
62.8855 603.00
62.9507 580.00
63.0159 579.00
63.0811 543.00
63.1463 579.00
63.2115 619.00
63.2767 585.00
63.3419 586.00
63.4071 569.00
63.4723 547.00
63.5375 543.00
63.6027 559.00
63.6679 567.00
63.7331 571.00
63.7983 523.00
63.8635 563.00
63.9287 562.00
63.9939 543.00
64.0591 543.00
64.1243 533.00
64.1895 602.00
64.2547 564.00
64.3199 542.00
64.3851 571.00
64.4503 569.00
64.5155 610.00
64.5807 615.00
64.6459 587.00
64.7111 626.00
64.7763 611.00
64.8415 628.00
64.9067 689.00
64.9719 682.00
65.0371 679.00
65.1023 771.00
65.1675 728.00
65.2327 778.00
65.2979 696.00
65.3631 694.00
65.4283 668.00
65.4935 628.00
65.5587 581.00
65.6239 537.00
65.6891 523.00
65.7543 559.00
65.8195 528.00
65.8847 505.00
65.9499 553.00
66.0151 515.00
66.0803 548.00
66.1455 546.00
66.2107 575.00
66.2759 624.00
66.3411 587.00
66.4063 568.00
66.4715 623.00
66.5367 635.00
66.6019 564.00
66.6671 656.00
66.7322 582.00
66.7974 547.00
66.8626 563.00
66.9278 572.00
66.993 544.00
67.0582 565.00
67.1234 528.00
67.1886 560.00
67.2538 552.00
67.319 560.00
67.3842 506.00
67.4494 554.00
67.5146 540.00
67.5798 596.00
67.645 556.00
67.7102 577.00
67.7754 529.00
67.8406 576.00
67.9058 594.00
67.971 639.00
68.0362 626.00
68.1014 597.00
68.1666 561.00
68.2318 598.00
68.297 536.00
68.3622 541.00
68.4274 518.00
68.4926 539.00
68.5578 584.00
68.623 536.00
68.6882 606.00
68.7534 613.00
68.8186 599.00
68.8838 599.00
68.949 623.00
69.0142 559.00
69.0794 554.00
69.1446 585.00
69.2098 585.00
69.275 521.00
69.3402 554.00
69.4054 541.00
69.4706 551.00
69.5358 630.00
69.601 612.00
69.6662 629.00
69.7314 677.00
69.7966 637.00
69.8618 644.00
69.927 727.00
69.9922 728.00
70.0574 698.00
70.1226 702.00
70.1878 689.00
70.253 666.00
70.3182 665.00
70.3834 719.00
70.4486 670.00
70.5138 701.00
70.579 731.00
70.6442 773.00
70.7094 817.00
70.7746 825.00
70.8398 690.00
70.905 692.00
70.9702 563.00
71.0354 587.00
71.1006 573.00
71.1658 521.00
71.231 562.00
71.2962 559.00
71.3614 572.00
71.4266 550.00
71.4918 563.00
71.5569 577.00
71.6221 544.00
71.6873 585.00
71.7525 561.00
71.8177 608.00
71.8829 695.00
71.9481 622.00
72.0133 635.00
72.0785 637.00
72.1437 655.00
72.2089 602.00
72.2741 609.00
72.3393 579.00
72.4045 596.00
72.4697 579.00
72.5349 555.00
72.6001 529.00
72.6653 594.00
72.7305 622.00
72.7957 565.00
72.8609 568.00
72.9261 590.00
72.9913 571.00
73.0565 620.00
73.1217 665.00
73.1869 707.00
73.2521 671.00
73.3173 686.00
73.3825 652.00
73.4477 686.00
73.5129 591.00
73.5781 562.00
73.6433 612.00
73.7085 562.00
73.7737 536.00
73.8389 555.00
73.9041 545.00
73.9693 541.00
74.0345 569.00
74.0997 608.00
74.1649 517.00
74.2301 547.00
74.2953 550.00
74.3605 564.00
74.4257 501.00
74.4909 569.00
74.5561 540.00
74.6213 567.00
74.6865 566.00
74.7517 530.00
74.8169 544.00
74.8821 555.00
74.9473 517.00
75.0125 530.00
75.0777 516.00
75.1429 552.00
75.2081 581.00
75.2733 539.00
75.3385 533.00
75.4037 572.00
75.4689 585.00
75.5341 588.00
75.5993 574.00
75.6645 539.00
75.7297 547.00
75.7949 576.00
75.8601 575.00
75.9253 574.00
75.9905 538.00
76.0557 554.00
76.1209 527.00
76.186 580.00
76.2513 562.00
76.3165 564.00
76.3816 611.00
76.4468 604.00
76.512 591.00
76.5772 606.00
76.6424 640.00
76.7076 644.00
76.7728 578.00
76.838 594.00
76.9032 633.00
76.9684 513.00
77.0336 601.00
77.0988 538.00
77.164 503.00
77.2292 589.00
77.2944 535.00
77.3596 595.00
77.4248 561.00
77.49 550.00
77.5552 562.00
77.6204 546.00
77.6856 548.00
77.7508 604.00
77.816 601.00
77.8812 648.00
77.9464 659.00
78.0116 676.00
78.0768 694.00
78.142 646.00
78.2072 617.00
78.2724 659.00
78.3376 660.00
78.4028 592.00
78.468 638.00
78.5332 613.00
78.5984 631.00
78.6636 606.00
78.7288 595.00
78.794 559.00
78.8592 578.00
78.9244 555.00
78.9896 556.00
79.0548 548.00
79.12 550.00
79.1852 559.00
79.2504 540.00
79.3156 531.00
79.3808 579.00
79.446 585.00
79.5112 528.00
79.5764 561.00
79.6416 576.00
79.7068 549.00
79.772 491.00
79.8372 535.00
79.9024 546.00
79.9676 548.00
80.0328 554.00
80.098 585.00
80.1632 546.00
80.2284 539.00
80.2936 558.00
80.3588 562.00
80.424 557.00
80.4892 533.00
80.5544 594.00
80.6196 564.00
80.6848 576.00
80.75 521.00
80.8152 513.00
80.8804 580.00
80.9456 547.00
81.0108 545.00
81.076 547.00
81.1412 574.00
81.2063 546.00
81.2715 523.00
81.3367 547.00
81.4019 575.00
81.4671 552.00
81.5323 560.00
81.5975 566.00
81.6627 564.00
81.7279 608.00
81.7931 571.00
81.8583 577.00
81.9235 609.00
81.9887 604.00
82.0539 569.00
82.1191 610.00
82.1843 597.00
82.2495 554.00
82.3147 560.00
82.3799 594.00
82.4451 599.00
82.5103 527.00
82.5755 571.00
82.6407 604.00
82.7059 641.00
82.7711 570.00
82.8363 621.00
82.9015 660.00
82.9667 604.00
83.0319 680.00
83.0971 661.00
83.1623 604.00
83.2275 601.00
83.2927 606.00
83.3579 610.00
83.4231 630.00
83.4883 610.00
83.5535 611.00
83.6187 609.00
83.6839 562.00
83.7491 615.00
83.8143 607.00
83.8795 608.00
83.9447 650.00
84.0099 617.00
84.0751 651.00
84.1403 695.00
84.2055 620.00
84.2707 620.00
84.3359 629.00
84.4011 596.00
84.4663 569.00
84.5315 588.00
84.5967 562.00
84.6619 537.00
84.7271 564.00
84.7923 555.00
84.8575 577.00
84.9227 596.00
84.9879 609.00
85.0531 605.00
85.1183 606.00
85.1835 606.00
85.2487 574.00
85.3139 580.00
85.3791 606.00
85.4443 634.00
85.5095 635.00
85.5747 637.00
85.6399 635.00
85.7051 629.00
85.7703 629.00
85.8354 637.00
85.9006 628.00
85.9659 620.00
86.031 601.00
86.0962 626.00
86.1614 664.00
86.2266 571.00
86.2918 656.00
86.357 586.00
86.4222 568.00
86.4874 568.00
86.5526 567.00
86.6178 515.00
86.683 529.00
86.7482 563.00
86.8134 535.00
86.8786 600.00
86.9438 606.00
87.009 634.00
87.0742 563.00
87.1394 591.00
87.2046 553.00
87.2698 593.00
87.335 565.00
87.4002 575.00
87.4654 639.00
87.5306 619.00
87.5958 616.00
87.661 642.00
87.7262 670.00
87.7914 674.00
87.8566 651.00
87.9218 646.00
87.987 621.00
88.0522 643.00
88.1174 619.00
88.1826 580.00
88.2478 589.00
88.313 622.00
88.3782 617.00
88.4434 614.00
88.5086 642.00
88.5738 576.00
88.639 631.00
88.7042 584.00
88.7694 614.00
88.8346 634.00
88.8998 665.00
88.965 595.00
89.0302 621.00
89.0954 610.00
89.1606 565.00
89.2258 566.00
89.291 552.00
89.3562 545.00
89.4214 566.00
89.4866 555.00
89.5518 533.00
89.617 607.00
89.6822 548.00
89.7474 552.00
89.8126 502.00
89.8778 536.00
89.943 546.00
90.0082 598.00
90.0734 526.00
90.1386 571.00
90.2038 548.00
90.269 577.00
90.3342 536.00
90.3994 569.00
90.4646 551.00
90.5298 578.00
90.595 551.00
90.6601 557.00
90.7253 545.00
90.7905 565.00
90.8557 521.00
90.9209 567.00
90.9861 529.00
91.0513 581.00
91.1165 572.00
91.1817 590.00
91.2469 540.00
91.3121 596.00
91.3773 656.00
91.4425 608.00
91.5077 607.00
91.5729 656.00
91.6381 640.00
91.7033 629.00
91.7685 642.00
91.8337 702.00
91.8989 640.00
91.9641 688.00
92.0293 655.00
92.0945 671.00
92.1597 662.00
92.2249 622.00
92.2901 653.00
92.3553 687.00
92.4205 677.00
92.4857 650.00
92.5509 583.00
92.6161 623.00
92.6813 599.00
92.7465 606.00
92.8117 634.00
92.8769 662.00
92.9421 655.00
93.0073 705.00
93.0725 656.00
93.1377 599.00
93.2029 638.00
93.2681 593.00
93.3333 652.00
93.3985 604.00
93.4637 652.00
93.5289 596.00
93.5941 562.00
93.6593 580.00
93.7245 588.00
93.7897 585.00
93.8549 583.00
93.9201 596.00
93.9853 659.00
94.0505 611.00
94.1157 692.00
94.1809 596.00
94.2461 557.00
94.3113 636.00
94.3765 587.00
94.4417 587.00
94.5069 539.00
94.5721 575.00
94.6373 557.00
94.7025 616.00
94.7677 590.00
94.8329 603.00
94.8981 630.00
94.9633 625.00
95.0285 698.00
95.0937 672.00
95.1589 665.00
95.2241 701.00
95.2893 619.00
95.3545 656.00
95.4197 648.00
95.4848 620.00
95.55 643.00
95.6153 673.00
95.6804 625.00
95.7456 579.00
95.8108 635.00
95.876 556.00
95.9412 629.00
96.0064 605.00
96.0716 603.00
96.1368 541.00
96.202 525.00
96.2672 553.00
96.3324 562.00
96.3976 522.00
96.4628 579.00
96.528 581.00
96.5932 567.00
96.6584 583.00
96.7236 560.00
96.7888 592.00
96.854 584.00
96.9192 617.00
96.9844 587.00
97.0496 573.00
97.1148 561.00
97.18 562.00
97.2452 548.00
97.3104 576.00
97.3756 577.00
97.4408 613.00
97.506 573.00
97.5712 580.00
97.6364 640.00
97.7016 602.00
97.7668 585.00
97.832 564.00
97.8972 579.00
97.9624 576.00
98.0276 549.00
98.0928 593.00
98.158 593.00
98.2232 574.00
98.2884 563.00
98.3536 625.00
98.4188 592.00
98.484 553.00
98.5492 502.00
98.6144 555.00
98.6796 567.00
98.7448 554.00
98.81 580.00
98.8752 578.00
98.9404 599.00
99.0056 618.00
99.0708 597.00
99.136 606.00
99.2012 552.00
99.2664 639.00
99.3316 615.00
99.3968 596.00
99.462 644.00
99.5272 598.00
99.5924 540.00
99.6576 591.00
99.7228 557.00
99.788 589.00
99.8532 585.00
99.9184 568.00
99.9836 580.00
99.9944 636.00