File: data/xrd_creation/results/TRI_197.xy
10.0094 2327.00
10.0746 2224.00
10.1398 2275.00
10.205 2250.00
10.2702 2226.00
10.3354 2190.00
10.4006 2216.00
10.4658 2152.00
10.531 2229.00
10.5962 2175.00
10.6614 2085.00
10.7266 2252.00
10.7918 2150.00
10.857 2154.00
10.9222 2018.00
10.9874 2081.00
11.0526 1899.00
11.1178 1898.00
11.183 1968.00
11.2482 1888.00
11.3134 1903.00
11.3786 1951.00
11.4438 1836.00
11.509 1839.00
11.5742 1783.00
11.6394 1863.00
11.7046 1797.00
11.7698 1745.00
11.835 1771.00
11.9002 1803.00
11.9654 1809.00
12.0306 1748.00
12.0958 1696.00
12.161 1710.00
12.2262 1799.00
12.2914 1669.00
12.3566 1718.00
12.4218 1674.00
12.487 1638.00
12.5522 1554.00
12.6174 1619.00
12.6826 1577.00
12.7478 1561.00
12.813 1527.00
12.8782 1603.00
12.9434 1542.00
13.0086 1535.00
13.0738 1576.00
13.139 1587.00
13.2042 1516.00
13.2694 1505.00
13.3346 1486.00
13.3998 1555.00
13.465 1601.00
13.5302 1674.00
13.5954 1669.00
13.6606 1625.00
13.7258 1532.00
13.791 1454.00
13.8562 1500.00
13.9214 1438.00
13.9865 1387.00
14.0517 1434.00
14.1169 1497.00
14.1821 1489.00
14.2473 1436.00
14.3125 1492.00
14.3777 1429.00
14.4429 1452.00
14.5081 1411.00
14.5733 1300.00
14.6385 1408.00
14.7037 1290.00
14.7689 1375.00
14.8341 1298.00
14.8993 1350.00
14.9645 1314.00
15.0297 1331.00
15.0949 1320.00
15.1601 1351.00
15.2253 1354.00
15.2905 1314.00
15.3557 1264.00
15.4209 1267.00
15.4861 1254.00
15.5513 1250.00
15.6165 1250.00
15.6817 1288.00
15.7469 1241.00
15.8121 1298.00
15.8773 1264.00
15.9425 1189.00
16.0077 1288.00
16.0729 1322.00
16.1381 1309.00
16.2033 1272.00
16.2685 1311.00
16.3337 1242.00
16.3989 1304.00
16.4641 1207.00
16.5293 1315.00
16.5945 1394.00
16.6597 1509.00
16.7249 1412.00
16.7901 1297.00
16.8553 1212.00
16.9205 1102.00
16.9857 1169.00
17.0509 1138.00
17.1161 1218.00
17.1813 1158.00
17.2465 1246.00
17.3117 1241.00
17.3769 1171.00
17.4421 1137.00
17.5073 1130.00
17.5725 1159.00
17.6377 1109.00
17.7029 1205.00
17.7681 1293.00
17.8333 1327.00
17.8985 1526.00
17.9637 1742.00
18.0289 1738.00
18.0941 1353.00
18.1593 1288.00
18.2245 1250.00
18.2897 1270.00
18.3549 1280.00
18.4201 1295.00
18.4853 1172.00
18.5505 1138.00
18.6157 1026.00
18.6809 1088.00
18.7461 1077.00
18.8112 1046.00
18.8764 1041.00
18.9416 1055.00
19.0068 1047.00
19.072 1093.00
19.1372 1054.00
19.2024 1053.00
19.2676 1088.00
19.3328 1119.00
19.398 1115.00
19.4632 1131.00
19.5284 1144.00
19.5936 1146.00
19.6588 1105.00
19.724 1067.00
19.7892 1157.00
19.8544 1100.00
19.9196 1015.00
19.9848 1016.00
20.05 935.00
20.1152 974.00
20.1804 939.00
20.2456 923.00
20.3108 892.00
20.376 876.00
20.4412 957.00
20.5064 947.00
20.5716 930.00
20.6368 920.00
20.702 928.00
20.7672 930.00
20.8324 1005.00
20.8976 955.00
20.9628 938.00
21.028 919.00
21.0932 985.00
21.1584 911.00
21.2236 980.00
21.2888 1023.00
21.354 1136.00
21.4192 1112.00
21.4844 1149.00
21.5496 968.00
21.6148 894.00
21.68 894.00
21.7452 917.00
21.8104 923.00
21.8756 889.00
21.9408 905.00
22.006 933.00
22.0712 832.00
22.1364 941.00
22.2016 856.00
22.2668 883.00
22.332 880.00
22.3972 968.00
22.4624 944.00
22.5276 945.00
22.5928 875.00
22.658 781.00
22.7232 858.00
22.7884 786.00
22.8536 813.00
22.9188 813.00
22.984 801.00
23.0492 814.00
23.1144 814.00
23.1796 856.00
23.2448 972.00
23.31 931.00
23.3752 976.00
23.4404 965.00
23.5056 925.00
23.5708 947.00
23.6359 1006.00
23.7011 864.00
23.7663 796.00
23.8315 774.00
23.8967 763.00
23.9619 792.00
24.0271 822.00
24.0923 813.00
24.1575 845.00
24.2227 849.00
24.2879 858.00
24.3531 853.00
24.4183 821.00
24.4835 839.00
24.5487 860.00
24.6139 818.00
24.6791 842.00
24.7443 810.00
24.8095 818.00
24.8747 777.00
24.9399 755.00
25.0051 776.00
25.0703 730.00
25.1355 749.00
25.2007 722.00
25.2659 745.00
25.3311 738.00
25.3963 779.00
25.4615 845.00
25.5267 926.00
25.5919 1025.00
25.6571 1255.00
25.7223 1349.00
25.7875 1206.00
25.8527 1093.00
25.9179 899.00
25.9831 762.00
26.0483 717.00
26.1135 714.00
26.1787 827.00
26.2439 744.00
26.3091 702.00
26.3743 739.00
26.4395 690.00
26.5047 666.00
26.5699 649.00
26.6351 675.00
26.7003 691.00
26.7655 706.00
26.8307 748.00
26.8959 743.00
26.9611 872.00
27.0263 1029.00
27.0915 1265.00
27.1567 1473.00
27.2219 1322.00
27.2871 980.00
27.3523 787.00
27.4175 735.00
27.4827 720.00
27.5479 796.00
27.6131 799.00
27.6783 763.00
27.7435 688.00
27.8087 766.00
27.8739 690.00
27.9391 744.00
28.0043 839.00
28.0695 1122.00
28.1347 1435.00
28.1999 1275.00
28.2651 893.00
28.3303 762.00
28.3955 779.00
28.4606 773.00
28.5258 1051.00
28.591 1396.00
28.6562 1291.00
28.7214 1018.00
28.7866 909.00
28.8518 1036.00
28.917 1303.00
28.9822 1701.00
29.0474 1867.00
29.1126 1484.00
29.1778 974.00
29.243 814.00
29.3082 673.00
29.3734 699.00
29.4386 754.00
29.5038 933.00
29.569 1387.00
29.6342 2304.00
29.6994 2926.00
29.7646 1944.00
29.8298 1119.00
29.895 949.00
29.9602 1040.00
30.0254 1537.00
30.0906 2291.00
30.1558 3399.00
30.221 2988.00
30.2862 2245.00
30.3514 1427.00
30.4166 1046.00
30.4818 1066.00
30.547 1386.00
30.6122 1865.00
30.6774 2012.00
30.7426 1754.00
30.8078 1296.00
30.873 1279.00
30.9382 1450.00
31.0034 1667.00
31.0686 1507.00
31.1338 1180.00
31.199 1051.00
31.2642 1317.00
31.3294 1121.00
31.3946 1125.00
31.4598 1293.00
31.525 1158.00
31.5902 1156.00
31.6554 1153.00
31.7206 1363.00
31.7858 1459.00
31.851 1417.00
31.9162 1597.00
31.9814 1355.00
32.0466 1094.00
32.1118 834.00
32.177 803.00
32.2422 752.00
32.3074 702.00
32.3726 635.00
32.4378 609.00
32.503 604.00
32.5682 592.00
32.6334 572.00
32.6986 576.00
32.7638 537.00
32.829 565.00
32.8942 586.00
32.9594 609.00
33.0246 663.00
33.0898 778.00
33.1549 826.00
33.2201 1081.00
33.2853 1254.00
33.3505 1642.00
33.4157 1796.00
33.4809 1446.00
33.5461 999.00
33.6113 742.00
33.6765 556.00
33.7417 556.00
33.8069 539.00
33.8721 557.00
33.9373 560.00
34.0025 539.00
34.0677 621.00
34.1329 717.00
34.1981 952.00
34.2633 1372.00
34.3285 1246.00
34.3937 954.00
34.4589 766.00
34.5241 685.00
34.5893 760.00
34.6545 770.00
34.7197 727.00
34.7849 682.00
34.8501 722.00
34.9153 803.00
34.9805 754.00
35.0457 676.00
35.1109 607.00
35.1761 575.00
35.2413 509.00
35.3065 484.00
35.3717 453.00
35.4369 508.00
35.5021 489.00
35.5673 553.00
35.6325 537.00
35.6977 489.00
35.7629 482.00
35.8281 481.00
35.8933 478.00
35.9585 500.00
36.0237 580.00
36.0889 591.00
36.1541 654.00
36.2193 748.00
36.2845 829.00
36.3497 752.00
36.4149 746.00
36.4801 716.00
36.5453 673.00
36.6105 619.00
36.6757 587.00
36.7409 555.00
36.8061 536.00
36.8713 574.00
36.9365 509.00
37.0017 514.00
37.0669 482.00
37.1321 517.00
37.1973 552.00
37.2625 568.00
37.3277 493.00
37.3929 465.00
37.4581 474.00
37.5233 478.00
37.5885 470.00
37.6537 511.00
37.7189 524.00
37.7841 522.00
37.8493 534.00
37.9145 493.00
37.9796 520.00
38.0448 455.00
38.11 471.00
38.1752 469.00
38.2404 542.00
38.3056 592.00
38.3708 517.00
38.436 484.00
38.5012 518.00
38.5664 514.00
38.6316 552.00
38.6968 518.00
38.762 500.00
38.8272 543.00
38.8924 542.00
38.9576 558.00
39.0228 534.00
39.088 495.00
39.1532 486.00
39.2184 440.00
39.2836 529.00
39.3488 515.00
39.414 488.00
39.4792 562.00
39.5444 657.00
39.6096 768.00
39.6748 976.00
39.74 753.00
39.8052 684.00
39.8704 637.00
39.9356 610.00
40.0008 526.00
40.066 498.00
40.1312 459.00
40.1964 479.00
40.2616 439.00
40.3268 438.00
40.392 446.00
40.4572 524.00
40.5224 529.00
40.5876 613.00
40.6528 551.00
40.718 518.00
40.7832 553.00
40.8484 514.00
40.9136 482.00
40.9788 470.00
41.044 479.00
41.1092 460.00
41.1744 438.00
41.2396 409.00
41.3048 419.00
41.37 454.00
41.4352 464.00
41.5004 478.00
41.5656 489.00
41.6308 435.00
41.696 425.00
41.7612 432.00
41.8264 415.00
41.8916 447.00
41.9568 545.00
42.022 540.00
42.0872 562.00
42.1524 527.00
42.2176 479.00
42.2828 494.00
42.348 469.00
42.4132 470.00
42.4784 490.00
42.5436 489.00
42.6088 488.00
42.6739 412.00
42.7392 415.00
42.8043 430.00
42.8695 430.00
42.9347 380.00
42.9999 413.00
43.0651 405.00
43.1303 434.00
43.1955 464.00
43.2607 529.00
43.3259 655.00
43.3911 770.00
43.4563 800.00
43.5215 628.00
43.5867 578.00
43.6519 533.00
43.7171 686.00
43.7823 782.00
43.8475 672.00
43.9127 626.00
43.9779 449.00
44.0431 397.00
44.1083 418.00
44.1735 414.00
44.2387 386.00
44.3039 420.00
44.3691 393.00
44.4343 382.00
44.4995 378.00
44.5647 421.00
44.6299 390.00
44.6951 415.00
44.7603 377.00
44.8255 387.00
44.8907 384.00
44.9559 367.00
45.0211 414.00
45.0863 379.00
45.1515 456.00
45.2167 434.00
45.2819 455.00
45.3471 456.00
45.4123 535.00
45.4775 610.00
45.5427 662.00
45.6079 679.00
45.6731 623.00
45.7383 641.00
45.8035 766.00
45.8687 726.00
45.9339 765.00
45.9991 646.00
46.0643 540.00
46.1295 451.00
46.1947 424.00
46.2599 384.00
46.3251 389.00
46.3903 380.00
46.4555 411.00
46.5207 442.00
46.5859 449.00
46.6511 473.00
46.7163 545.00
46.7815 508.00
46.8467 553.00
46.9119 529.00
46.9771 530.00
47.0423 526.00
47.1075 594.00
47.1727 498.00
47.2379 499.00
47.3031 522.00
47.3683 620.00
47.4335 658.00
47.4986 615.00
47.5639 473.00
47.629 510.00
47.6942 635.00
47.7594 798.00
47.8246 666.00
47.8898 636.00
47.955 468.00
48.0202 430.00
48.0854 406.00
48.1506 436.00
48.2158 440.00
48.281 511.00
48.3462 554.00
48.4114 657.00
48.4766 700.00
48.5418 712.00
48.607 796.00
48.6722 798.00
48.7374 962.00
48.8026 913.00
48.8678 904.00
48.933 854.00
48.9982 859.00
49.0634 962.00
49.1286 1211.00
49.1938 967.00
49.259 857.00
49.3242 630.00
49.3894 576.00
49.4546 482.00
49.5198 504.00
49.585 504.00
49.6502 451.00
49.7154 483.00
49.7806 519.00
49.8458 538.00
49.911 460.00
49.9762 479.00
50.0414 465.00
50.1066 471.00
50.1718 451.00
50.237 408.00
50.3022 376.00
50.3674 423.00
50.4326 454.00
50.4978 476.00
50.563 462.00
50.6282 521.00
50.6934 527.00
50.7586 648.00
50.8238 604.00
50.889 545.00
50.9542 449.00
51.0194 422.00
51.0846 456.00
51.1498 511.00
51.215 473.00
51.2802 404.00
51.3454 392.00
51.4106 402.00
51.4758 362.00
51.541 374.00
51.6062 342.00
51.6714 326.00
51.7366 328.00
51.8018 388.00
51.867 390.00
51.9322 502.00
51.9974 560.00
52.0626 681.00
52.1278 656.00
52.193 594.00
52.2582 570.00
52.3233 584.00
52.3886 704.00
52.4537 774.00
52.5189 848.00
52.5841 871.00
52.6493 892.00
52.7145 707.00
52.7797 742.00
52.8449 608.00
52.9101 537.00
52.9753 483.00
53.0405 457.00
53.1057 410.00
53.1709 376.00
53.2361 342.00
53.3013 366.00
53.3665 356.00
53.4317 357.00
53.4969 370.00
53.5621 349.00
53.6273 388.00
53.6925 419.00
53.7577 422.00
53.8229 369.00
53.8881 414.00
53.9533 398.00
54.0185 473.00
54.0837 525.00
54.1489 643.00
54.2141 821.00
54.2793 664.00
54.3445 706.00
54.4097 622.00
54.4749 520.00
54.5401 474.00
54.6053 494.00
54.6705 513.00
54.7357 447.00
54.8009 494.00
54.8661 465.00
54.9313 413.00
54.9965 435.00
55.0617 438.00
55.1269 429.00
55.1921 407.00
55.2573 389.00
55.3225 448.00
55.3877 420.00
55.4529 474.00
55.5181 523.00
55.5833 534.00
55.6485 572.00
55.7137 642.00
55.7789 642.00
55.8441 578.00
55.9093 539.00
55.9745 466.00
56.0397 398.00
56.1049 383.00
56.1701 388.00
56.2353 341.00
56.3005 337.00
56.3657 371.00
56.4309 388.00
56.4961 346.00
56.5613 388.00
56.6265 401.00
56.6917 427.00
56.7569 423.00
56.8221 400.00
56.8873 375.00
56.9525 385.00
57.0177 385.00
57.0829 459.00
57.148 458.00
57.2132 457.00
57.2784 440.00
57.3436 380.00
57.4088 404.00
57.474 416.00
57.5392 478.00
57.6044 571.00
57.6696 663.00
57.7348 614.00
57.8 644.00
57.8652 531.00
57.9304 490.00
57.9956 449.00
58.0608 448.00
58.126 464.00
58.1912 533.00
58.2564 524.00
58.3216 535.00
58.3868 565.00
58.452 656.00
58.5172 746.00
58.5824 848.00
58.6476 682.00
58.7128 599.00
58.778 560.00
58.8432 423.00
58.9084 415.00
58.9736 429.00
59.0388 443.00
59.104 429.00
59.1692 433.00
59.2344 402.00
59.2996 376.00
59.3648 433.00
59.43 528.00
59.4952 430.00
59.5604 494.00
59.6256 440.00
59.6908 466.00
59.756 437.00
59.8212 411.00
59.8864 414.00
59.9516 392.00
60.0168 400.00
60.082 384.00
60.1472 352.00
60.2124 367.00
60.2776 301.00
60.3428 367.00
60.408 366.00
60.4732 357.00
60.5384 349.00
60.6036 343.00
60.6688 425.00
60.734 407.00
60.7992 436.00
60.8644 538.00
60.9296 649.00
60.9948 620.00
61.06 622.00
61.1252 522.00
61.1904 500.00
61.2556 415.00
61.3208 395.00
61.386 402.00
61.4512 412.00
61.5164 355.00
61.5816 393.00
61.6468 427.00
61.712 392.00
61.7772 354.00
61.8424 336.00
61.9076 334.00
61.9727 306.00
62.0379 334.00
62.1031 357.00
62.1683 315.00
62.2335 314.00
62.2987 335.00
62.3639 374.00
62.4291 401.00
62.4943 404.00
62.5595 421.00
62.6247 421.00
62.6899 392.00
62.7551 411.00
62.8203 375.00
62.8855 396.00
62.9507 365.00
63.0159 334.00
63.0811 405.00
63.1463 369.00
63.2115 386.00
63.2767 406.00
63.3419 416.00
63.4071 402.00
63.4723 415.00
63.5375 381.00
63.6027 338.00
63.6679 380.00
63.7331 378.00
63.7983 417.00
63.8635 475.00
63.9287 413.00
63.9939 433.00
64.0591 422.00
64.1243 355.00
64.1895 392.00
64.2547 339.00
64.3199 372.00
64.3851 392.00
64.4503 362.00
64.5155 313.00
64.5807 300.00
64.6459 297.00
64.7111 342.00
64.7763 353.00
64.8415 358.00
64.9067 460.00
64.9719 419.00
65.0371 398.00
65.1023 403.00
65.1675 367.00
65.2327 381.00
65.2979 400.00
65.3631 435.00
65.4283 500.00
65.4935 495.00
65.5587 468.00
65.6239 489.00
65.6891 453.00
65.7543 454.00
65.8195 429.00
65.8847 394.00
65.9499 371.00
66.0151 390.00
66.0803 339.00
66.1455 361.00
66.2107 383.00
66.2759 377.00
66.3411 398.00
66.4063 400.00
66.4715 474.00
66.5367 391.00
66.6019 377.00
66.6671 398.00
66.7322 363.00
66.7974 355.00
66.8626 329.00
66.9278 304.00
66.993 313.00
67.0582 320.00
67.1234 309.00
67.1886 271.00
67.2538 303.00
67.319 326.00
67.3842 298.00
67.4494 334.00
67.5146 272.00
67.5798 298.00
67.645 387.00
67.7102 423.00
67.7754 409.00
67.8406 383.00
67.9058 415.00
67.971 370.00
68.0362 344.00
68.1014 341.00
68.1666 321.00
68.2318 360.00
68.297 328.00
68.3622 318.00
68.4274 318.00
68.4926 285.00
68.5578 317.00
68.623 305.00
68.6882 310.00
68.7534 339.00
68.8186 302.00
68.8838 309.00
68.949 326.00
69.0142 337.00
69.0794 300.00
69.1446 319.00
69.2098 290.00
69.275 333.00
69.3402 327.00
69.4054 328.00
69.4706 318.00
69.5358 379.00
69.601 390.00
69.6662 396.00
69.7314 373.00
69.7966 389.00
69.8618 329.00
69.927 377.00
69.9922 347.00
70.0574 334.00
70.1226 350.00
70.1878 382.00
70.253 321.00
70.3182 353.00
70.3834 415.00
70.4486 394.00
70.5138 395.00
70.579 372.00
70.6442 385.00
70.7094 342.00
70.7746 317.00
70.8398 309.00
70.905 341.00
70.9702 290.00
71.0354 312.00
71.1006 315.00
71.1658 297.00
71.231 331.00
71.2962 317.00
71.3614 287.00
71.4266 307.00
71.4918 309.00
71.5569 317.00
71.6221 349.00
71.6873 407.00
71.7525 394.00
71.8177 425.00
71.8829 392.00
71.9481 346.00
72.0133 333.00
72.0785 380.00
72.1437 337.00
72.2089 298.00
72.2741 288.00
72.3393 334.00
72.4045 310.00
72.4697 275.00
72.5349 297.00
72.6001 302.00
72.6653 293.00
72.7305 305.00
72.7957 278.00
72.8609 298.00
72.9261 293.00
72.9913 321.00
73.0565 349.00
73.1217 374.00
73.1869 369.00
73.2521 372.00
73.3173 352.00
73.3825 376.00
73.4477 338.00
73.5129 357.00
73.5781 382.00
73.6433 314.00
73.7085 367.00
73.7737 363.00
73.8389 353.00
73.9041 333.00
73.9693 360.00
74.0345 335.00
74.0997 338.00
74.1649 323.00
74.2301 337.00
74.2953 311.00
74.3605 319.00
74.4257 289.00
74.4909 315.00
74.5561 316.00
74.6213 394.00
74.6865 334.00
74.7517 292.00
74.8169 344.00
74.8821 313.00
74.9473 303.00
75.0125 306.00
75.0777 292.00
75.1429 324.00
75.2081 307.00
75.2733 320.00
75.3385 289.00
75.4037 344.00
75.4689 284.00
75.5341 314.00
75.5993 312.00
75.6645 338.00
75.7297 322.00
75.7949 274.00
75.8601 241.00
75.9253 285.00
75.9905 265.00
76.0557 269.00
76.1209 299.00
76.186 272.00
76.2513 263.00
76.3165 248.00
76.3816 279.00
76.4468 306.00
76.512 301.00
76.5772 261.00
76.6424 316.00
76.7076 288.00
76.7728 296.00
76.838 310.00
76.9032 334.00
76.9684 305.00
77.0336 277.00
77.0988 288.00
77.164 282.00
77.2292 293.00
77.2944 279.00
77.3596 313.00
77.4248 315.00
77.49 275.00
77.5552 298.00
77.6204 270.00
77.6856 278.00
77.7508 263.00
77.816 270.00
77.8812 284.00
77.9464 239.00
78.0116 277.00
78.0768 244.00
78.142 223.00
78.2072 270.00
78.2724 233.00
78.3376 283.00
78.4028 274.00
78.468 276.00
78.5332 295.00
78.5984 309.00
78.6636 292.00
78.7288 303.00
78.794 292.00
78.8592 320.00
78.9244 284.00
78.9896 244.00
79.0548 284.00
79.12 278.00
79.1852 303.00
79.2504 284.00
79.3156 286.00
79.3808 280.00
79.446 285.00
79.5112 287.00
79.5764 247.00
79.6416 315.00
79.7068 296.00
79.772 343.00
79.8372 363.00
79.9024 318.00
79.9676 308.00
80.0328 274.00
80.098 316.00
80.1632 284.00
80.2284 283.00
80.2936 267.00
80.3588 307.00
80.424 270.00
80.4892 248.00
80.5544 263.00
80.6196 289.00
80.6848 291.00
80.75 304.00
80.8152 302.00
80.8804 269.00
80.9456 294.00
81.0108 300.00
81.076 281.00
81.1412 312.00
81.2063 259.00
81.2715 267.00
81.3367 299.00
81.4019 268.00
81.4671 320.00
81.5323 294.00
81.5975 306.00
81.6627 386.00
81.7279 411.00
81.7931 397.00
81.8583 405.00
81.9235 385.00
81.9887 382.00
82.0539 381.00
82.1191 337.00
82.1843 350.00
82.2495 314.00
82.3147 289.00
82.3799 268.00
82.4451 311.00
82.5103 323.00
82.5755 281.00
82.6407 293.00
82.7059 301.00
82.7711 324.00
82.8363 316.00
82.9015 326.00
82.9667 279.00
83.0319 307.00
83.0971 298.00
83.1623 295.00
83.2275 312.00
83.2927 316.00
83.3579 349.00
83.4231 386.00
83.4883 339.00
83.5535 322.00
83.6187 319.00
83.6839 336.00
83.7491 349.00
83.8143 277.00
83.8795 332.00
83.9447 405.00
84.0099 359.00
84.0751 323.00
84.1403 337.00
84.2055 361.00
84.2707 331.00
84.3359 300.00
84.4011 278.00
84.4663 318.00
84.5315 297.00
84.5967 323.00
84.6619 332.00
84.7271 310.00
84.7923 290.00
84.8575 342.00
84.9227 322.00
84.9879 359.00
85.0531 370.00
85.1183 350.00
85.1835 349.00
85.2487 364.00
85.3139 335.00
85.3791 310.00
85.4443 331.00
85.5095 304.00
85.5747 347.00
85.6399 321.00
85.7051 360.00
85.7703 337.00
85.8354 304.00
85.9006 337.00
85.9659 307.00
86.031 355.00
86.0962 363.00
86.1614 299.00
86.2266 317.00
86.2918 296.00
86.357 320.00
86.4222 298.00
86.4874 271.00
86.5526 280.00
86.6178 287.00
86.683 282.00
86.7482 259.00
86.8134 267.00
86.8786 291.00
86.9438 288.00
87.009 274.00
87.0742 278.00
87.1394 328.00
87.2046 278.00
87.2698 271.00
87.335 298.00
87.4002 275.00
87.4654 233.00
87.5306 268.00
87.5958 261.00
87.661 294.00
87.7262 281.00
87.7914 323.00
87.8566 323.00
87.9218 304.00
87.987 315.00
88.0522 314.00
88.1174 340.00
88.1826 323.00
88.2478 314.00
88.313 303.00
88.3782 288.00
88.4434 306.00
88.5086 265.00
88.5738 292.00
88.639 298.00
88.7042 315.00
88.7694 317.00
88.8346 281.00
88.8998 298.00
88.965 287.00
89.0302 261.00
89.0954 270.00
89.1606 240.00
89.2258 257.00
89.291 285.00
89.3562 260.00
89.4214 236.00
89.4866 291.00
89.5518 274.00
89.617 292.00
89.6822 279.00
89.7474 299.00
89.8126 271.00
89.8778 301.00
89.943 284.00
90.0082 272.00
90.0734 276.00
90.1386 269.00
90.2038 269.00
90.269 259.00
90.3342 256.00
90.3994 292.00
90.4646 284.00
90.5298 275.00
90.595 275.00
90.6601 239.00
90.7253 286.00
90.7905 276.00
90.8557 249.00
90.9209 279.00
90.9861 256.00
91.0513 276.00
91.1165 248.00
91.1817 266.00
91.2469 266.00
91.3121 249.00
91.3773 224.00
91.4425 277.00
91.5077 283.00
91.5729 247.00
91.6381 300.00
91.7033 280.00
91.7685 264.00
91.8337 275.00
91.8989 284.00
91.9641 284.00
92.0293 241.00
92.0945 289.00
92.1597 278.00
92.2249 283.00
92.2901 275.00
92.3553 277.00
92.4205 262.00
92.4857 304.00
92.5509 291.00
92.6161 331.00
92.6813 326.00
92.7465 321.00
92.8117 306.00
92.8769 293.00
92.9421 303.00
93.0073 297.00
93.0725 294.00
93.1377 291.00
93.2029 291.00
93.2681 280.00
93.3333 272.00
93.3985 278.00
93.4637 271.00
93.5289 281.00
93.5941 288.00
93.6593 275.00
93.7245 280.00
93.7897 294.00
93.8549 279.00
93.9201 321.00
93.9853 305.00
94.0505 279.00
94.1157 319.00
94.1809 305.00
94.2461 275.00
94.3113 293.00
94.3765 270.00
94.4417 297.00
94.5069 298.00
94.5721 293.00
94.6373 264.00
94.7025 243.00
94.7677 293.00
94.8329 291.00
94.8981 326.00
94.9633 292.00
95.0285 256.00
95.0937 292.00
95.1589 354.00
95.2241 331.00
95.2893 293.00
95.3545 262.00
95.4197 238.00
95.4848 300.00
95.55 312.00
95.6153 296.00
95.6804 282.00
95.7456 265.00
95.8108 294.00
95.876 288.00
95.9412 306.00
96.0064 320.00
96.0716 273.00
96.1368 278.00
96.202 274.00
96.2672 310.00
96.3324 300.00
96.3976 224.00
96.4628 278.00
96.528 293.00
96.5932 272.00
96.6584 285.00
96.7236 260.00
96.7888 221.00
96.854 283.00
96.9192 281.00
96.9844 274.00
97.0496 285.00
97.1148 248.00
97.18 262.00
97.2452 283.00
97.3104 263.00
97.3756 232.00
97.4408 263.00
97.506 251.00
97.5712 243.00
97.6364 232.00
97.7016 261.00
97.7668 259.00
97.832 245.00
97.8972 237.00
97.9624 266.00
98.0276 198.00
98.0928 248.00
98.158 295.00
98.2232 300.00
98.2884 263.00
98.3536 275.00
98.4188 298.00
98.484 284.00
98.5492 265.00
98.6144 265.00
98.6796 270.00
98.7448 275.00
98.81 272.00
98.8752 290.00
98.9404 279.00
99.0056 262.00
99.0708 279.00
99.136 263.00
99.2012 280.00
99.2664 349.00
99.3316 362.00
99.3968 331.00
99.462 340.00
99.5272 299.00
99.5924 303.00
99.6576 403.00
99.7228 306.00
99.788 243.00
99.8532 267.00
99.9184 287.00
99.9836 261.00
99.9944 247.00