File: data/xrd_creation/results/TRI_200.xy
10.0094 2368.00
10.0746 2430.00
10.1398 2379.00
10.205 2403.00
10.2702 2336.00
10.3354 2264.00
10.4006 2160.00
10.4658 2258.00
10.531 2269.00
10.5962 2150.00
10.6614 2155.00
10.7266 2136.00
10.7918 2094.00
10.857 2156.00
10.9222 2196.00
10.9874 2110.00
11.0526 2063.00
11.1178 2141.00
11.183 2072.00
11.2482 1981.00
11.3134 1973.00
11.3786 2072.00
11.4438 2127.00
11.509 2039.00
11.5742 1973.00
11.6394 1904.00
11.7046 2013.00
11.7698 1995.00
11.835 1994.00
11.9002 1959.00
11.9654 1845.00
12.0306 1962.00
12.0958 1947.00
12.161 1884.00
12.2262 1957.00
12.2914 1778.00
12.3566 1763.00
12.4218 1807.00
12.487 1860.00
12.5522 1814.00
12.6174 1823.00
12.6826 1753.00
12.7478 1753.00
12.813 1767.00
12.8782 1735.00
12.9434 1771.00
13.0086 1704.00
13.0738 1741.00
13.139 1718.00
13.2042 1697.00
13.2694 1669.00
13.3346 1675.00
13.3998 1646.00
13.465 1667.00
13.5302 1707.00
13.5954 1678.00
13.6606 1647.00
13.7258 1645.00
13.791 1649.00
13.8562 1559.00
13.9214 1672.00
13.9865 1623.00
14.0517 1624.00
14.1169 1571.00
14.1821 1704.00
14.2473 1695.00
14.3125 1552.00
14.3777 1555.00
14.4429 1567.00
14.5081 1557.00
14.5733 1510.00
14.6385 1547.00
14.7037 1579.00
14.7689 1572.00
14.8341 1620.00
14.8993 1535.00
14.9645 1606.00
15.0297 1479.00
15.0949 1508.00
15.1601 1516.00
15.2253 1488.00
15.2905 1522.00
15.3557 1566.00
15.4209 1472.00
15.4861 1491.00
15.5513 1581.00
15.6165 1449.00
15.6817 1542.00
15.7469 1497.00
15.8121 1458.00
15.8773 1506.00
15.9425 1415.00
16.0077 1423.00
16.0729 1429.00
16.1381 1484.00
16.2033 1379.00
16.2685 1434.00
16.3337 1468.00
16.3989 1356.00
16.4641 1505.00
16.5293 1408.00
16.5945 1433.00
16.6597 1425.00
16.7249 1451.00
16.7901 1453.00
16.8553 1452.00
16.9205 1358.00
16.9857 1463.00
17.0509 1422.00
17.1161 1418.00
17.1813 1547.00
17.2465 1497.00
17.3117 1502.00
17.3769 1421.00
17.4421 1461.00
17.5073 1404.00
17.5725 1367.00
17.6377 1378.00
17.7029 1372.00
17.7681 1376.00
17.8333 1386.00
17.8985 1363.00
17.9637 1277.00
18.0289 1348.00
18.0941 1339.00
18.1593 1423.00
18.2245 1511.00
18.2897 1462.00
18.3549 1466.00
18.4201 1349.00
18.4853 1288.00
18.5505 1320.00
18.6157 1342.00
18.6809 1290.00
18.7461 1358.00
18.8112 1307.00
18.8764 1353.00
18.9416 1260.00
19.0068 1344.00
19.072 1208.00
19.1372 1272.00
19.2024 1297.00
19.2676 1178.00
19.3328 1205.00
19.398 1300.00
19.4632 1261.00
19.5284 1213.00
19.5936 1250.00
19.6588 1279.00
19.724 1194.00
19.7892 1194.00
19.8544 1177.00
19.9196 1204.00
19.9848 1250.00
20.05 1236.00
20.1152 1215.00
20.1804 1234.00
20.2456 1160.00
20.3108 1209.00
20.376 1163.00
20.4412 1175.00
20.5064 1218.00
20.5716 1188.00
20.6368 1257.00
20.702 1190.00
20.7672 1233.00
20.8324 1206.00
20.8976 1247.00
20.9628 1141.00
21.028 1140.00
21.0932 1130.00
21.1584 1170.00
21.2236 1103.00
21.2888 1145.00
21.354 1181.00
21.4192 1224.00
21.4844 1127.00
21.5496 1149.00
21.6148 1183.00
21.68 1093.00
21.7452 1135.00
21.8104 1142.00
21.8756 1089.00
21.9408 1078.00
22.006 1116.00
22.0712 1165.00
22.1364 1172.00
22.2016 1081.00
22.2668 1134.00
22.332 1161.00
22.3972 1133.00
22.4624 1125.00
22.5276 1136.00
22.5928 1141.00
22.658 1168.00
22.7232 1111.00
22.7884 1139.00
22.8536 1096.00
22.9188 1076.00
22.984 1068.00
23.0492 1118.00
23.1144 1083.00
23.1796 1087.00
23.2448 1035.00
23.31 1098.00
23.3752 1055.00
23.4404 1098.00
23.5056 1013.00
23.5708 1045.00
23.6359 1080.00
23.7011 1046.00
23.7663 1045.00
23.8315 1042.00
23.8967 1012.00
23.9619 977.00
24.0271 1027.00
24.0923 1024.00
24.1575 1017.00
24.2227 1082.00
24.2879 1055.00
24.3531 997.00
24.4183 1074.00
24.4835 1130.00
24.5487 1182.00
24.6139 1215.00
24.6791 1141.00
24.7443 1099.00
24.8095 954.00
24.8747 991.00
24.9399 1032.00
25.0051 1000.00
25.0703 972.00
25.1355 973.00
25.2007 1033.00
25.2659 962.00
25.3311 929.00
25.3963 905.00
25.4615 932.00
25.5267 946.00
25.5919 959.00
25.6571 935.00
25.7223 944.00
25.7875 917.00
25.8527 974.00
25.9179 919.00
25.9831 963.00
26.0483 966.00
26.1135 907.00
26.1787 961.00
26.2439 992.00
26.3091 933.00
26.3743 984.00
26.4395 950.00
26.5047 923.00
26.5699 924.00
26.6351 1000.00
26.7003 985.00
26.7655 885.00
26.8307 905.00
26.8959 991.00
26.9611 1103.00
27.0263 1297.00
27.0915 1364.00
27.1567 1421.00
27.2219 1277.00
27.2871 1096.00
27.3523 1019.00
27.4175 1084.00
27.4827 1049.00
27.5479 1209.00
27.6131 1522.00
27.6783 1946.00
27.7435 2345.00
27.8087 2655.00
27.8739 2557.00
27.9391 1683.00
28.0043 1228.00
28.0695 1130.00
28.1347 1118.00
28.1999 1044.00
28.2651 1029.00
28.3303 1146.00
28.3955 1120.00
28.4606 1174.00
28.5258 1324.00
28.591 1387.00
28.6562 1328.00
28.7214 1098.00
28.7866 965.00
28.8518 933.00
28.917 958.00
28.9822 954.00
29.0474 972.00
29.1126 956.00
29.1778 1006.00
29.243 1095.00
29.3082 1165.00
29.3734 1310.00
29.4386 1495.00
29.5038 1524.00
29.569 1327.00
29.6342 1153.00
29.6994 1186.00
29.7646 1171.00
29.8298 1429.00
29.895 1774.00
29.9602 1717.00
30.0254 1385.00
30.0906 1097.00
30.1558 954.00
30.221 932.00
30.2862 935.00
30.3514 949.00
30.4166 891.00
30.4818 880.00
30.547 902.00
30.6122 969.00
30.6774 932.00
30.7426 920.00
30.8078 930.00
30.873 885.00
30.9382 885.00
31.0034 886.00
31.0686 953.00
31.1338 931.00
31.199 871.00
31.2642 877.00
31.3294 911.00
31.3946 824.00
31.4598 951.00
31.525 872.00
31.5902 891.00
31.6554 864.00
31.7206 869.00
31.7858 866.00
31.851 871.00
31.9162 878.00
31.9814 869.00
32.0466 867.00
32.1118 861.00
32.177 892.00
32.2422 898.00
32.3074 841.00
32.3726 860.00
32.4378 831.00
32.503 835.00
32.5682 838.00
32.6334 865.00
32.6986 821.00
32.7638 847.00
32.829 832.00
32.8942 822.00
32.9594 831.00
33.0246 877.00
33.0898 900.00
33.1549 927.00
33.2201 1054.00
33.2853 1065.00
33.3505 1100.00
33.4157 1011.00
33.4809 875.00
33.5461 845.00
33.6113 843.00
33.6765 842.00
33.7417 816.00
33.8069 909.00
33.8721 950.00
33.9373 1011.00
34.0025 1072.00
34.0677 946.00
34.1329 893.00
34.1981 877.00
34.2633 869.00
34.3285 874.00
34.3937 911.00
34.4589 910.00
34.5241 1067.00
34.5893 1105.00
34.6545 1054.00
34.7197 1002.00
34.7849 1002.00
34.8501 915.00
34.9153 1069.00
34.9805 1246.00
35.0457 1710.00
35.1109 2482.00
35.1761 3135.00
35.2413 2656.00
35.3065 2008.00
35.3717 1362.00
35.4369 1143.00
35.5021 1005.00
35.5673 909.00
35.6325 879.00
35.6977 841.00
35.7629 835.00
35.8281 806.00
35.8933 781.00
35.9585 763.00
36.0237 771.00
36.0889 850.00
36.1541 846.00
36.2193 818.00
36.2845 822.00
36.3497 928.00
36.4149 1004.00
36.4801 1072.00
36.5453 1011.00
36.6105 1043.00
36.6757 1088.00
36.7409 1119.00
36.8061 1073.00
36.8713 1015.00
36.9365 927.00
37.0017 886.00
37.0669 892.00
37.1321 864.00
37.1973 937.00
37.2625 940.00
37.3277 1009.00
37.3929 1015.00
37.4581 902.00
37.5233 827.00
37.5885 798.00
37.6537 801.00
37.7189 699.00
37.7841 750.00
37.8493 740.00
37.9145 768.00
37.9796 753.00
38.0448 770.00
38.11 817.00
38.1752 870.00
38.2404 768.00
38.3056 866.00
38.3708 778.00
38.436 778.00
38.5012 759.00
38.5664 771.00
38.6316 787.00
38.6968 743.00
38.762 734.00
38.8272 713.00
38.8924 698.00
38.9576 678.00
39.0228 726.00
39.088 749.00
39.1532 709.00
39.2184 728.00
39.2836 785.00
39.3488 786.00
39.414 744.00
39.4792 752.00
39.5444 709.00
39.6096 703.00
39.6748 708.00
39.74 697.00
39.8052 668.00
39.8704 724.00
39.9356 714.00
40.0008 717.00
40.066 668.00
40.1312 678.00
40.1964 659.00
40.2616 715.00
40.3268 739.00
40.392 731.00
40.4572 716.00
40.5224 830.00
40.5876 851.00
40.6528 756.00
40.718 725.00
40.7832 703.00
40.8484 727.00
40.9136 741.00
40.9788 721.00
41.044 696.00
41.1092 760.00
41.1744 761.00
41.2396 752.00
41.3048 760.00
41.37 781.00
41.4352 874.00
41.5004 901.00
41.5656 995.00
41.6308 1007.00
41.696 1021.00
41.7612 1079.00
41.8264 1003.00
41.8916 958.00
41.9568 834.00
42.022 866.00
42.0872 777.00
42.1524 771.00
42.2176 763.00
42.2828 803.00
42.348 755.00
42.4132 826.00
42.4784 880.00
42.5436 982.00
42.6088 1100.00
42.6739 1278.00
42.7392 1119.00
42.8043 1096.00
42.8695 1030.00
42.9347 1016.00
42.9999 1037.00
43.0651 943.00
43.1303 799.00
43.1955 796.00
43.2607 721.00
43.3259 757.00
43.3911 699.00
43.4563 708.00
43.5215 701.00
43.5867 636.00
43.6519 711.00
43.7171 739.00
43.7823 686.00
43.8475 717.00
43.9127 725.00
43.9779 722.00
44.0431 709.00
44.1083 714.00
44.1735 704.00
44.2387 687.00
44.3039 680.00
44.3691 696.00
44.4343 755.00
44.4995 699.00
44.5647 687.00
44.6299 681.00
44.6951 644.00
44.7603 656.00
44.8255 675.00
44.8907 678.00
44.9559 634.00
45.0211 641.00
45.0863 643.00
45.1515 653.00
45.2167 645.00
45.2819 700.00
45.3471 673.00
45.4123 686.00
45.4775 661.00
45.5427 698.00
45.6079 678.00
45.6731 692.00
45.7383 722.00
45.8035 695.00
45.8687 740.00
45.9339 734.00
45.9991 745.00
46.0643 785.00
46.1295 803.00
46.1947 757.00
46.2599 792.00
46.3251 786.00
46.3903 840.00
46.4555 777.00
46.5207 677.00
46.5859 692.00
46.6511 696.00
46.7163 635.00
46.7815 677.00
46.8467 649.00
46.9119 646.00
46.9771 645.00
47.0423 653.00
47.1075 657.00
47.1727 688.00
47.2379 632.00
47.3031 607.00
47.3683 654.00
47.4335 611.00
47.4986 635.00
47.5639 643.00
47.629 616.00
47.6942 629.00
47.7594 639.00
47.8246 676.00
47.8898 669.00
47.955 650.00
48.0202 640.00
48.0854 655.00
48.1506 666.00
48.2158 636.00
48.281 635.00
48.3462 650.00
48.4114 652.00
48.4766 664.00
48.5418 645.00
48.607 634.00
48.6722 645.00
48.7374 715.00
48.8026 681.00
48.8678 661.00
48.933 633.00
48.9982 593.00
49.0634 652.00
49.1286 614.00
49.1938 672.00
49.259 621.00
49.3242 619.00
49.3894 625.00
49.4546 678.00
49.5198 615.00
49.585 662.00
49.6502 704.00
49.7154 640.00
49.7806 683.00
49.8458 697.00
49.911 682.00
49.9762 690.00
50.0414 800.00
50.1066 748.00
50.1718 710.00
50.237 681.00
50.3022 663.00
50.3674 651.00
50.4326 671.00
50.4978 623.00
50.563 631.00
50.6282 626.00
50.6934 657.00
50.7586 633.00
50.8238 654.00
50.889 631.00
50.9542 644.00
51.0194 650.00
51.0846 622.00
51.1498 603.00
51.215 668.00
51.2802 663.00
51.3454 706.00
51.4106 642.00
51.4758 650.00
51.541 689.00
51.6062 714.00
51.6714 697.00
51.7366 729.00
51.8018 687.00
51.867 665.00
51.9322 690.00
51.9974 645.00
52.0626 611.00
52.1278 633.00
52.193 657.00
52.2582 624.00
52.3233 676.00
52.3886 713.00
52.4537 692.00
52.5189 711.00
52.5841 708.00
52.6493 734.00
52.7145 817.00
52.7797 893.00
52.8449 884.00
52.9101 829.00
52.9753 790.00
53.0405 740.00
53.1057 704.00
53.1709 637.00
53.2361 697.00
53.3013 661.00
53.3665 667.00
53.4317 653.00
53.4969 698.00
53.5621 705.00
53.6273 691.00
53.6925 745.00
53.7577 776.00
53.8229 904.00
53.8881 1087.00
53.9533 1090.00
54.0185 1084.00
54.0837 1121.00
54.1489 1130.00
54.2141 1102.00
54.2793 1093.00
54.3445 1014.00
54.4097 997.00
54.4749 947.00
54.5401 921.00
54.6053 907.00
54.6705 956.00
54.7357 926.00
54.8009 979.00
54.8661 891.00
54.9313 909.00
54.9965 786.00
55.0617 815.00
55.1269 764.00
55.1921 726.00
55.2573 705.00
55.3225 726.00
55.3877 720.00
55.4529 801.00
55.5181 766.00
55.5833 787.00
55.6485 708.00
55.7137 755.00
55.7789 771.00
55.8441 761.00
55.9093 812.00
55.9745 882.00
56.0397 954.00
56.1049 1055.00
56.1701 1255.00
56.2353 1539.00
56.3005 1684.00
56.3657 1479.00
56.4309 1370.00
56.4961 1199.00
56.5613 1030.00
56.6265 973.00
56.6917 892.00
56.7569 866.00
56.8221 847.00
56.8873 813.00
56.9525 854.00
57.0177 801.00
57.0829 834.00
57.148 858.00
57.2132 813.00
57.2784 750.00
57.3436 720.00
57.4088 723.00
57.474 725.00
57.5392 701.00
57.6044 690.00
57.6696 720.00
57.7348 688.00
57.8 655.00
57.8652 674.00
57.9304 665.00
57.9956 680.00
58.0608 665.00
58.126 629.00
58.1912 643.00
58.2564 612.00
58.3216 681.00
58.3868 671.00
58.452 610.00
58.5172 704.00
58.5824 686.00
58.6476 692.00
58.7128 703.00
58.778 699.00
58.8432 692.00
58.9084 695.00
58.9736 712.00
59.0388 659.00
59.104 671.00
59.1692 694.00
59.2344 733.00
59.2996 770.00
59.3648 826.00
59.43 840.00
59.4952 875.00
59.5604 871.00
59.6256 775.00
59.6908 796.00
59.756 758.00
59.8212 788.00
59.8864 706.00
59.9516 710.00
60.0168 744.00
60.082 756.00
60.1472 684.00
60.2124 653.00
60.2776 670.00
60.3428 659.00
60.408 698.00
60.4732 690.00
60.5384 641.00
60.6036 629.00
60.6688 633.00
60.734 660.00
60.7992 709.00
60.8644 695.00
60.9296 692.00
60.9948 716.00
61.06 728.00
61.1252 712.00
61.1904 631.00
61.2556 692.00
61.3208 701.00
61.386 732.00
61.4512 746.00
61.5164 798.00
61.5816 898.00
61.6468 1123.00
61.712 1446.00
61.7772 1541.00
61.8424 1299.00
61.9076 1298.00
61.9727 1097.00
62.0379 926.00
62.1031 810.00
62.1683 678.00
62.2335 700.00
62.2987 667.00
62.3639 657.00
62.4291 691.00
62.4943 593.00
62.5595 616.00
62.6247 686.00
62.6899 640.00
62.7551 666.00
62.8203 661.00
62.8855 648.00
62.9507 642.00
63.0159 669.00
63.0811 655.00
63.1463 617.00
63.2115 687.00
63.2767 679.00
63.3419 728.00
63.4071 666.00
63.4723 662.00
63.5375 689.00
63.6027 681.00
63.6679 674.00
63.7331 670.00
63.7983 676.00
63.8635 667.00
63.9287 686.00
63.9939 710.00
64.0591 654.00
64.1243 685.00
64.1895 685.00
64.2547 682.00
64.3199 706.00
64.3851 675.00
64.4503 667.00
64.5155 734.00
64.5807 687.00
64.6459 716.00
64.7111 687.00
64.7763 677.00
64.8415 772.00
64.9067 836.00
64.9719 838.00
65.0371 768.00
65.1023 749.00
65.1675 821.00
65.2327 820.00
65.2979 822.00
65.3631 826.00
65.4283 845.00
65.4935 875.00
65.5587 867.00
65.6239 797.00
65.6891 823.00
65.7543 794.00
65.8195 751.00
65.8847 744.00
65.9499 728.00
66.0151 740.00
66.0803 666.00
66.1455 706.00
66.2107 669.00
66.2759 648.00
66.3411 693.00
66.4063 648.00
66.4715 645.00
66.5367 672.00
66.6019 673.00
66.6671 687.00
66.7322 681.00
66.7974 674.00
66.8626 714.00
66.9278 689.00
66.993 752.00
67.0582 670.00
67.1234 675.00
67.1886 727.00
67.2538 725.00
67.319 741.00
67.3842 710.00
67.4494 704.00
67.5146 692.00
67.5798 717.00
67.645 677.00
67.7102 695.00
67.7754 719.00
67.8406 657.00
67.9058 728.00
67.971 758.00
68.0362 693.00
68.1014 713.00
68.1666 719.00
68.2318 712.00
68.297 656.00
68.3622 694.00
68.4274 727.00
68.4926 748.00
68.5578 674.00
68.623 728.00
68.6882 687.00
68.7534 682.00
68.8186 742.00
68.8838 741.00
68.949 708.00
69.0142 733.00
69.0794 723.00
69.1446 719.00
69.2098 738.00
69.275 676.00
69.3402 676.00
69.4054 699.00
69.4706 666.00
69.5358 703.00
69.601 702.00
69.6662 691.00
69.7314 688.00
69.7966 637.00
69.8618 682.00
69.927 764.00
69.9922 700.00
70.0574 645.00
70.1226 656.00
70.1878 729.00
70.253 660.00
70.3182 628.00
70.3834 689.00
70.4486 669.00
70.5138 692.00
70.579 639.00
70.6442 693.00
70.7094 621.00
70.7746 667.00
70.8398 647.00
70.905 693.00
70.9702 699.00
71.0354 639.00
71.1006 689.00
71.1658 621.00
71.231 749.00
71.2962 658.00
71.3614 670.00
71.4266 661.00
71.4918 650.00
71.5569 643.00
71.6221 639.00
71.6873 626.00
71.7525 621.00
71.8177 638.00
71.8829 700.00
71.9481 675.00
72.0133 663.00
72.0785 667.00
72.1437 712.00
72.2089 664.00
72.2741 672.00
72.3393 647.00
72.4045 637.00
72.4697 711.00
72.5349 680.00
72.6001 633.00
72.6653 667.00
72.7305 703.00
72.7957 715.00
72.8609 782.00
72.9261 768.00
72.9913 810.00
73.0565 732.00
73.1217 765.00
73.1869 721.00
73.2521 691.00
73.3173 645.00
73.3825 699.00
73.4477 673.00
73.5129 677.00
73.5781 655.00
73.6433 666.00
73.7085 644.00
73.7737 647.00
73.8389 749.00
73.9041 721.00
73.9693 730.00
74.0345 674.00
74.0997 662.00
74.1649 650.00
74.2301 666.00
74.2953 624.00
74.3605 677.00
74.4257 665.00
74.4909 664.00
74.5561 667.00
74.6213 626.00
74.6865 643.00
74.7517 657.00
74.8169 677.00
74.8821 668.00
74.9473 643.00
75.0125 615.00
75.0777 692.00
75.1429 610.00
75.2081 653.00
75.2733 624.00
75.3385 632.00
75.4037 632.00
75.4689 644.00
75.5341 639.00
75.5993 623.00
75.6645 629.00
75.7297 655.00
75.7949 692.00
75.8601 672.00
75.9253 643.00
75.9905 622.00
76.0557 670.00
76.1209 658.00
76.186 605.00
76.2513 646.00
76.3165 614.00
76.3816 679.00
76.4468 602.00
76.512 632.00
76.5772 611.00
76.6424 623.00
76.7076 593.00
76.7728 667.00
76.838 632.00
76.9032 647.00
76.9684 687.00
77.0336 633.00
77.0988 654.00
77.164 617.00
77.2292 620.00
77.2944 674.00
77.3596 629.00
77.4248 608.00
77.49 680.00
77.5552 647.00
77.6204 674.00
77.6856 667.00
77.7508 730.00
77.816 725.00
77.8812 687.00
77.9464 691.00
78.0116 650.00
78.0768 685.00
78.142 656.00
78.2072 673.00
78.2724 624.00
78.3376 663.00
78.4028 620.00
78.468 627.00
78.5332 651.00
78.5984 703.00
78.6636 699.00
78.7288 650.00
78.794 647.00
78.8592 654.00
78.9244 631.00
78.9896 666.00
79.0548 625.00
79.12 638.00
79.1852 656.00
79.2504 612.00
79.3156 617.00
79.3808 649.00
79.446 646.00
79.5112 654.00
79.5764 599.00
79.6416 629.00
79.7068 614.00
79.772 659.00
79.8372 658.00
79.9024 671.00
79.9676 701.00
80.0328 686.00
80.098 613.00
80.1632 666.00
80.2284 694.00
80.2936 670.00
80.3588 665.00
80.424 621.00
80.4892 660.00
80.5544 645.00
80.6196 660.00
80.6848 644.00
80.75 642.00
80.8152 632.00
80.8804 682.00
80.9456 658.00
81.0108 615.00
81.076 687.00
81.1412 616.00
81.2063 631.00
81.2715 697.00
81.3367 646.00
81.4019 609.00
81.4671 648.00
81.5323 640.00
81.5975 592.00
81.6627 668.00
81.7279 689.00
81.7931 641.00
81.8583 673.00
81.9235 639.00
81.9887 668.00
82.0539 642.00
82.1191 635.00
82.1843 633.00
82.2495 651.00
82.3147 623.00
82.3799 670.00
82.4451 667.00
82.5103 660.00
82.5755 693.00
82.6407 674.00
82.7059 697.00
82.7711 599.00
82.8363 694.00
82.9015 647.00
82.9667 598.00
83.0319 655.00
83.0971 671.00
83.1623 654.00
83.2275 657.00
83.2927 678.00
83.3579 684.00
83.4231 659.00
83.4883 647.00
83.5535 630.00
83.6187 636.00
83.6839 628.00
83.7491 652.00
83.8143 680.00
83.8795 662.00
83.9447 646.00
84.0099 673.00
84.0751 697.00
84.1403 612.00
84.2055 647.00
84.2707 636.00
84.3359 674.00
84.4011 627.00
84.4663 639.00
84.5315 649.00
84.5967 663.00
84.6619 644.00
84.7271 630.00
84.7923 556.00
84.8575 615.00
84.9227 638.00
84.9879 626.00
85.0531 659.00
85.1183 672.00
85.1835 694.00
85.2487 678.00
85.3139 731.00
85.3791 659.00
85.4443 666.00
85.5095 699.00
85.5747 685.00
85.6399 651.00
85.7051 643.00
85.7703 662.00
85.8354 663.00
85.9006 644.00
85.9659 737.00
86.031 698.00
86.0962 665.00
86.1614 705.00
86.2266 699.00
86.2918 688.00
86.357 696.00
86.4222 724.00
86.4874 646.00
86.5526 663.00
86.6178 668.00
86.683 706.00
86.7482 680.00
86.8134 647.00
86.8786 670.00
86.9438 628.00
87.009 670.00
87.0742 669.00
87.1394 686.00
87.2046 650.00
87.2698 687.00
87.335 709.00
87.4002 698.00
87.4654 663.00
87.5306 712.00
87.5958 664.00
87.661 705.00
87.7262 690.00
87.7914 670.00
87.8566 702.00
87.9218 772.00
87.987 798.00
88.0522 811.00
88.1174 829.00
88.1826 824.00
88.2478 791.00
88.313 777.00
88.3782 800.00
88.4434 786.00
88.5086 788.00
88.5738 657.00
88.639 702.00
88.7042 663.00
88.7694 720.00
88.8346 667.00
88.8998 661.00
88.965 678.00
89.0302 635.00
89.0954 665.00
89.1606 681.00
89.2258 689.00
89.291 692.00
89.3562 652.00
89.4214 648.00
89.4866 693.00
89.5518 745.00
89.617 732.00
89.6822 682.00
89.7474 683.00
89.8126 711.00
89.8778 757.00
89.943 731.00
90.0082 680.00
90.0734 664.00
90.1386 677.00
90.2038 726.00
90.269 654.00
90.3342 699.00
90.3994 720.00
90.4646 731.00
90.5298 709.00
90.595 723.00
90.6601 721.00
90.7253 767.00
90.7905 682.00
90.8557 651.00
90.9209 714.00
90.9861 702.00
91.0513 690.00
91.1165 725.00
91.1817 594.00
91.2469 663.00
91.3121 645.00
91.3773 671.00
91.4425 648.00
91.5077 690.00
91.5729 657.00
91.6381 647.00
91.7033 673.00
91.7685 628.00
91.8337 693.00
91.8989 708.00
91.9641 701.00
92.0293 653.00
92.0945 719.00
92.1597 675.00
92.2249 679.00
92.2901 727.00
92.3553 684.00
92.4205 683.00
92.4857 711.00
92.5509 695.00
92.6161 712.00
92.6813 741.00
92.7465 701.00
92.8117 699.00
92.8769 782.00
92.9421 760.00
93.0073 725.00
93.0725 711.00
93.1377 695.00
93.2029 717.00
93.2681 724.00
93.3333 721.00
93.3985 707.00
93.4637 737.00
93.5289 744.00
93.5941 771.00
93.6593 751.00
93.7245 740.00
93.7897 735.00
93.8549 705.00
93.9201 704.00
93.9853 741.00
94.0505 691.00
94.1157 718.00
94.1809 756.00
94.2461 682.00
94.3113 699.00
94.3765 704.00
94.4417 676.00
94.5069 650.00
94.5721 662.00
94.6373 654.00
94.7025 695.00
94.7677 630.00
94.8329 691.00
94.8981 606.00
94.9633 638.00
95.0285 656.00
95.0937 675.00
95.1589 659.00
95.2241 669.00
95.2893 675.00
95.3545 685.00
95.4197 662.00
95.4848 654.00
95.55 682.00
95.6153 689.00
95.6804 702.00
95.7456 703.00
95.8108 670.00
95.876 650.00
95.9412 664.00
96.0064 678.00
96.0716 691.00
96.1368 677.00
96.202 716.00
96.2672 651.00
96.3324 715.00
96.3976 673.00
96.4628 702.00
96.528 702.00
96.5932 695.00
96.6584 665.00
96.7236 711.00
96.7888 724.00
96.854 630.00
96.9192 668.00
96.9844 708.00
97.0496 698.00
97.1148 677.00
97.18 705.00
97.2452 653.00
97.3104 678.00
97.3756 691.00
97.4408 698.00
97.506 677.00
97.5712 656.00
97.6364 641.00
97.7016 690.00
97.7668 662.00
97.832 630.00
97.8972 656.00
97.9624 697.00
98.0276 623.00
98.0928 681.00
98.158 685.00
98.2232 736.00
98.2884 707.00
98.3536 751.00
98.4188 715.00
98.484 658.00
98.5492 720.00
98.6144 653.00
98.6796 619.00
98.7448 703.00
98.81 668.00
98.8752 630.00
98.9404 685.00
99.0056 708.00
99.0708 676.00
99.136 672.00
99.2012 690.00
99.2664 681.00
99.3316 678.00
99.3968 709.00
99.462 700.00
99.5272 681.00
99.5924 672.00
99.6576 653.00
99.7228 685.00
99.788 700.00
99.8532 663.00
99.9184 687.00
99.9836 717.00
99.9944 654.00