File: data/xrd_creation/results/TRI_-2.xy
9.903433 2842.00
9.968632 2789.00
10.0338 2721.00
10.099 2629.00
10.1642 2710.00
10.2294 2781.00
10.2946 2604.00
10.3598 2632.00
10.425 2661.00
10.4902 2639.00
10.5554 2637.00
10.6206 2644.00
10.6858 2639.00
10.751 2549.00
10.8162 2538.00
10.8814 2468.00
10.9466 2480.00
11.0118 2437.00
11.077 2550.00
11.1422 2500.00
11.2074 2390.00
11.2726 2406.00
11.3378 2365.00
11.403 2349.00
11.4682 2275.00
11.5334 2350.00
11.5986 2261.00
11.6638 2323.00
11.729 2278.00
11.7942 2189.00
11.8594 2331.00
11.9246 2358.00
11.9898 2281.00
12.055 2348.00
12.1202 2271.00
12.1854 2226.00
12.2506 2364.00
12.3158 2238.00
12.381 2320.00
12.4462 2357.00
12.5114 2356.00
12.5766 2355.00
12.6418 2258.00
12.707 2325.00
12.7722 2279.00
12.8374 2260.00
12.9026 2247.00
12.9678 2186.00
13.033 2221.00
13.0982 2154.00
13.1634 2222.00
13.2286 2133.00
13.2938 2077.00
13.359 2189.00
13.4242 2119.00
13.4894 2126.00
13.5546 2230.00
13.6198 2153.00
13.685 2048.00
13.7502 2124.00
13.8154 2066.00
13.8805 2081.00
13.9457 2125.00
14.0109 2054.00
14.0761 2072.00
14.1413 2076.00
14.2065 2012.00
14.2717 2058.00
14.3369 2095.00
14.4021 2068.00
14.4673 2042.00
14.5325 2038.00
14.5977 1986.00
14.6629 2095.00
14.7281 2027.00
14.7933 1969.00
14.8585 1911.00
14.9237 1898.00
14.9889 2035.00
15.0541 1906.00
15.1193 1908.00
15.1845 1948.00
15.2497 1933.00
15.3149 2050.00
15.3801 1954.00
15.4453 1867.00
15.5105 1842.00
15.5757 1863.00
15.6409 1922.00
15.7061 1969.00
15.7713 1922.00
15.8365 1901.00
15.9017 1937.00
15.9669 1907.00
16.0321 1846.00
16.0973 1864.00
16.1625 1909.00
16.2277 1898.00
16.2929 1931.00
16.3581 1876.00
16.4233 1854.00
16.4885 1858.00
16.5537 1748.00
16.6189 1855.00
16.6841 1832.00
16.7493 1773.00
16.8145 1823.00
16.8797 1826.00
16.9449 1884.00
17.0101 1814.00
17.0753 1828.00
17.1405 1782.00
17.2057 1877.00
17.2709 1822.00
17.3361 1752.00
17.4013 1766.00
17.4665 1734.00
17.5317 1778.00
17.5969 1810.00
17.6621 1834.00
17.7273 1772.00
17.7925 1817.00
17.8577 1867.00
17.9229 1791.00
17.9881 1854.00
18.0533 1734.00
18.1185 1699.00
18.1837 1764.00
18.2489 1829.00
18.3141 1802.00
18.3793 1752.00
18.4445 1710.00
18.5097 1702.00
18.5749 1701.00
18.6401 1689.00
18.7052 1652.00
18.7704 1614.00
18.8356 1698.00
18.9008 1723.00
18.966 1636.00
19.0312 1665.00
19.0964 1622.00
19.1616 1718.00
19.2268 1656.00
19.292 1631.00
19.3572 1573.00
19.4224 1666.00
19.4876 1692.00
19.5528 1650.00
19.618 1626.00
19.6832 1631.00
19.7484 1626.00
19.8136 1624.00
19.8788 1575.00
19.944 1642.00
20.0092 1602.00
20.0744 1575.00
20.1396 1705.00
20.2048 1594.00
20.27 1557.00
20.3352 1649.00
20.4004 1645.00
20.4656 1658.00
20.5308 1587.00
20.596 1614.00
20.6612 1590.00
20.7264 1633.00
20.7916 1539.00
20.8568 1572.00
20.922 1619.00
20.9872 1589.00
21.0524 1601.00
21.1176 1645.00
21.1828 1640.00
21.248 1687.00
21.3132 1605.00
21.3784 1551.00
21.4436 1574.00
21.5088 1547.00
21.574 1610.00
21.6392 1588.00
21.7044 1597.00
21.7696 1578.00
21.8348 1629.00
21.9 1500.00
21.9652 1533.00
22.0304 1513.00
22.0956 1539.00
22.1608 1585.00
22.226 1570.00
22.2912 1506.00
22.3564 1512.00
22.4216 1569.00
22.4868 1621.00
22.552 1654.00
22.6172 1559.00
22.6824 1667.00
22.7476 1708.00
22.8128 1662.00
22.878 1757.00
22.9432 1822.00
23.0084 1893.00
23.0736 2120.00
23.1388 2663.00
23.204 3852.00
23.2692 6767.00
23.3344 12182.00
23.3996 18152.00
23.4647 15388.00
23.5299 9193.00
23.5951 4234.00
23.6603 2235.00
23.7255 1851.00
23.7907 1790.00
23.8559 1677.00
23.9211 1627.00
23.9863 1565.00
24.0515 1493.00
24.1167 1533.00
24.1819 1536.00
24.2471 1476.00
24.3123 1486.00
24.3775 1597.00
24.4427 1479.00
24.5079 1444.00
24.5731 1484.00
24.6383 1501.00
24.7035 1456.00
24.7687 1488.00
24.8339 1424.00
24.8991 1387.00
24.9643 1462.00
25.0295 1432.00
25.0947 1442.00
25.1599 1398.00
25.2251 1403.00
25.2903 1430.00
25.3555 1466.00
25.4207 1476.00
25.4859 1395.00
25.5511 1434.00
25.6163 1465.00
25.6815 1462.00
25.7467 1356.00
25.8119 1432.00
25.8771 1430.00
25.9423 1492.00
26.0075 1513.00
26.0727 1661.00
26.1379 1902.00
26.2031 2110.00
26.2683 1788.00
26.3335 1539.00
26.3987 1366.00
26.4639 1419.00
26.5291 1381.00
26.5943 1354.00
26.6595 1396.00
26.7247 1404.00
26.7899 1271.00
26.8551 1355.00
26.9203 1339.00
26.9855 1349.00
27.0507 1337.00
27.1159 1310.00
27.1811 1310.00
27.2463 1269.00
27.3115 1354.00
27.3767 1327.00
27.4419 1354.00
27.5071 1357.00
27.5723 1286.00
27.6375 1331.00
27.7027 1327.00
27.7679 1297.00
27.8331 1280.00
27.8983 1332.00
27.9635 1287.00
28.0287 1294.00
28.0939 1335.00
28.1591 1364.00
28.2243 1467.00
28.2894 1540.00
28.3546 1742.00
28.4198 1523.00
28.485 1347.00
28.5502 1315.00
28.6154 1301.00
28.6806 1313.00
28.7458 1297.00
28.811 1315.00
28.8762 1221.00
28.9414 1329.00
29.0066 1210.00
29.0718 1251.00
29.137 1320.00
29.2022 1218.00
29.2674 1280.00
29.3326 1232.00
29.3978 1293.00
29.463 1287.00
29.5282 1321.00
29.5934 1352.00
29.6586 1276.00
29.7238 1292.00
29.789 1255.00
29.8542 1213.00
29.9194 1259.00
29.9846 1308.00
30.0498 1360.00
30.115 1238.00
30.1802 1274.00
30.2454 1223.00
30.3106 1242.00
30.3758 1273.00
30.441 1250.00
30.5062 1233.00
30.5714 1191.00
30.6366 1258.00
30.7018 1199.00
30.767 1186.00
30.8322 1218.00
30.8974 1216.00
30.9626 1107.00
31.0278 1132.00
31.093 1156.00
31.1582 1217.00
31.2234 1139.00
31.2886 1169.00
31.3538 1185.00
31.419 1113.00
31.4842 1263.00
31.5494 1242.00
31.6146 1237.00
31.6798 1248.00
31.745 1212.00
31.8102 1239.00
31.8754 1185.00
31.9406 1273.00
32.0058 1277.00
32.071 1372.00
32.1362 1361.00
32.2014 1457.00
32.2666 1560.00
32.3318 1612.00
32.397 1906.00
32.4622 2417.00
32.5274 3482.00
32.5926 5767.00
32.6578 7959.00
32.723 7575.00
32.7882 5728.00
32.8534 4019.00
32.9186 3182.00
32.9838 3279.00
33.0489 4808.00
33.1141 9905.00
33.1793 20621.00
33.2445 32767.00
33.3097 26960.00
33.3749 14660.00
33.4401 6026.00
33.5053 4522.00
33.5705 5464.00
33.6357 6995.00
33.7009 7542.00
33.7661 5805.00
33.8313 3443.00
33.8965 2021.00
33.9617 1687.00
34.0269 1595.00
34.0921 1430.00
34.1573 1342.00
34.2225 1309.00
34.2877 1321.00
34.3529 1316.00
34.4181 1385.00
34.4833 1343.00
34.5485 1222.00
34.6137 1321.00
34.6789 1350.00
34.7441 1388.00
34.8093 1342.00
34.8745 1349.00
34.9397 1256.00
35.0049 1266.00
35.0701 1224.00
35.1353 1197.00
35.2005 1159.00
35.2657 1381.00
35.3309 1906.00
35.3961 2557.00
35.4613 1989.00
35.5265 1534.00
35.5917 1212.00
35.6569 1198.00
35.7221 1098.00
35.7873 1184.00
35.8525 1179.00
35.9177 1154.00
35.9829 1173.00
36.0481 1143.00
36.1133 1127.00
36.1785 1134.00
36.2437 1200.00
36.3089 1155.00
36.3741 1210.00
36.4393 1139.00
36.5045 1155.00
36.5697 1128.00
36.6349 1116.00
36.7001 1161.00
36.7653 1166.00
36.8305 1203.00
36.8957 1226.00
36.9609 1195.00
37.0261 1130.00
37.0913 1121.00
37.1565 1161.00
37.2217 1217.00
37.2869 1163.00
37.3521 1159.00
37.4173 1246.00
37.4825 1347.00
37.5477 1635.00
37.6129 2010.00
37.6781 1783.00
37.7433 1527.00
37.8085 1270.00
37.8736 1144.00
37.9388 1101.00
38.004 1055.00
38.0692 977.00
38.1344 1041.00
38.1996 1115.00
38.2648 1014.00
38.33 1090.00
38.3952 1125.00
38.4604 1104.00
38.5256 1067.00
38.5908 1087.00
38.656 1163.00
38.7212 1240.00
38.7864 1315.00
38.8516 1275.00
38.9168 1185.00
38.982 1176.00
39.0472 1096.00
39.1124 1234.00
39.1776 1279.00
39.2428 1515.00
39.308 1918.00
39.3732 2085.00
39.4384 1829.00
39.5036 1439.00
39.5688 1210.00
39.634 1105.00
39.6992 1063.00
39.7644 1086.00
39.8296 1039.00
39.8948 1009.00
39.96 1072.00
40.0252 1014.00
40.0904 1055.00
40.1556 1039.00
40.2208 1031.00
40.286 1072.00
40.3512 1180.00
40.4164 1472.00
40.4816 1579.00
40.5468 1488.00
40.612 1322.00
40.6772 1222.00
40.7424 1071.00
40.8076 1074.00
40.8728 1151.00
40.938 1059.00
41.0032 1142.00
41.0684 1044.00
41.1336 1164.00
41.1988 1279.00
41.264 1321.00
41.3292 1416.00
41.3944 1361.00
41.4596 1246.00
41.5248 1162.00
41.59 1012.00
41.6552 982.00
41.7204 1008.00
41.7856 978.00
41.8508 920.00
41.916 994.00
41.9812 990.00
42.0464 967.00
42.1116 948.00
42.1768 1015.00
42.242 967.00
42.3072 908.00
42.3724 984.00
42.4376 997.00
42.5028 1044.00
42.568 1039.00
42.6332 1336.00
42.6983 1500.00
42.7635 1461.00
42.8287 1314.00
42.8939 1178.00
42.9591 1013.00
43.0243 960.00
43.0895 1017.00
43.1547 1006.00
43.2199 992.00
43.2851 930.00
43.3503 918.00
43.4155 985.00
43.4807 1004.00
43.5459 931.00
43.6111 989.00
43.6763 953.00
43.7415 978.00
43.8067 1019.00
43.8719 1075.00
43.9371 1080.00
44.0023 1228.00
44.0675 1176.00
44.1327 1130.00
44.1979 1096.00
44.2631 953.00
44.3283 1010.00
44.3935 944.00
44.4587 1081.00
44.5239 1044.00
44.5891 1100.00
44.6543 1165.00
44.7195 1043.00
44.7847 988.00
44.8499 920.00
44.9151 954.00
44.9803 967.00
45.0455 963.00
45.1107 986.00
45.1759 956.00
45.2411 1004.00
45.3063 956.00
45.3715 991.00
45.4367 964.00
45.5019 944.00
45.5671 929.00
45.6323 929.00
45.6975 965.00
45.7627 948.00
45.8279 1035.00
45.8931 977.00
45.9583 980.00
46.0235 904.00
46.0887 980.00
46.1539 978.00
46.2191 917.00
46.2843 948.00
46.3495 914.00
46.4147 1023.00
46.4799 1013.00
46.5451 984.00
46.6103 1024.00
46.6755 939.00
46.7407 1026.00
46.8059 1069.00
46.8711 1031.00
46.9363 1069.00
47.0015 1099.00
47.0667 1122.00
47.1319 1362.00
47.1971 1496.00
47.2623 1737.00
47.3275 3021.00
47.3927 5431.00
47.4579 8649.00
47.523 8680.00
47.5882 8004.00
47.6534 7751.00
47.7186 6547.00
47.7838 4389.00
47.849 3315.00
47.9142 1755.00
47.9794 1376.00
48.0446 1217.00
48.1098 1122.00
48.175 1043.00
48.2402 1067.00
48.3054 952.00
48.3706 1018.00
48.4358 989.00
48.501 1033.00
48.5662 941.00
48.6314 1102.00
48.6966 1163.00
48.7618 1321.00
48.827 1298.00
48.8922 1249.00
48.9574 1270.00
49.0226 1361.00
49.0878 1344.00
49.153 1220.00
49.2182 1064.00
49.2834 1032.00
49.3486 964.00
49.4138 953.00
49.479 928.00
49.5442 975.00
49.6094 955.00
49.6746 913.00
49.7398 924.00
49.805 960.00
49.8702 927.00
49.9354 974.00
50.0006 914.00
50.0658 896.00
50.131 943.00
50.1962 902.00
50.2614 930.00
50.3266 923.00
50.3918 918.00
50.457 952.00
50.5222 950.00
50.5874 905.00
50.6526 952.00
50.7178 918.00
50.783 883.00
50.8482 964.00
50.9134 916.00
50.9786 941.00
51.0438 920.00
51.109 945.00
51.1742 947.00
51.2394 946.00
51.3046 944.00
51.3698 951.00
51.435 963.00
51.5002 987.00
51.5654 951.00
51.6306 955.00
51.6958 979.00
51.761 897.00
51.8262 943.00
51.8914 1024.00
51.9566 1020.00
52.0218 1037.00
52.087 875.00
52.1522 964.00
52.2174 1000.00
52.2826 1091.00
52.3477 1052.00
52.4129 1164.00
52.4781 1093.00
52.5433 1188.00
52.6085 1591.00
52.6737 2047.00
52.7389 2365.00
52.8041 2314.00
52.8693 2266.00
52.9345 1917.00
52.9997 1646.00
53.0649 1414.00
53.1301 1297.00
53.1953 1195.00
53.2605 1319.00
53.3257 1654.00
53.3909 2341.00
53.4561 3382.00
53.5213 4221.00
53.5865 4471.00
53.6517 4513.00
53.7169 3459.00
53.7821 2634.00
53.8473 2046.00
53.9125 1596.00
53.9777 1637.00
54.0429 1893.00
54.1081 2405.00
54.1733 2370.00
54.2385 2134.00
54.3037 1994.00
54.3689 1564.00
54.4341 1359.00
54.4993 1307.00
54.5645 1373.00
54.6297 1551.00
54.6949 1186.00
54.7601 1233.00
54.8253 1016.00
54.8905 977.00
54.9557 967.00
55.0209 939.00
55.0861 886.00
55.1513 911.00
55.2165 952.00
55.2817 885.00
55.3469 914.00
55.4121 941.00
55.4773 956.00
55.5425 1044.00
55.6077 920.00
55.6729 946.00
55.7381 1044.00
55.8033 923.00
55.8685 943.00
55.9337 936.00
55.9989 937.00
56.0641 900.00
56.1293 873.00
56.1945 856.00
56.2597 919.00
56.3249 853.00
56.3901 893.00
56.4553 896.00
56.5205 921.00
56.5857 890.00
56.6509 921.00
56.7161 888.00
56.7813 900.00
56.8465 910.00
56.9117 946.00
56.9769 920.00
57.042 885.00
57.1073 954.00
57.1724 893.00
57.2376 924.00
57.3028 903.00
57.368 957.00
57.4332 951.00
57.4984 902.00
57.5636 933.00
57.6288 967.00
57.694 924.00
57.7592 956.00
57.8244 970.00
57.8896 914.00
57.9548 1056.00
58.02 1019.00
58.0852 1176.00
58.1504 1372.00
58.2156 1844.00
58.2808 3011.00
58.346 3831.00
58.4112 3865.00
58.4764 3806.00
58.5416 3315.00
58.6068 2712.00
58.672 2553.00
58.7372 2749.00
58.8024 3487.00
58.8676 3508.00
58.9328 3035.00
58.998 2683.00
59.0632 2156.00
59.1284 1814.00
59.1936 1698.00
59.2588 2023.00
59.324 2346.00
59.3892 3280.00
59.4544 4321.00
59.5196 5256.00
59.5848 5827.00
59.65 6115.00
59.7152 6439.00
59.7804 4840.00
59.8456 3679.00
59.9108 2946.00
59.976 1893.00
60.0412 1395.00
60.1064 1195.00
60.1716 988.00
60.2368 1019.00
60.302 993.00
60.3672 1015.00
60.4324 999.00
60.4976 980.00
60.5628 984.00
60.628 923.00
60.6932 954.00
60.7584 847.00
60.8236 902.00
60.8888 935.00
60.954 917.00
61.0192 833.00
61.0844 846.00
61.1496 864.00
61.2148 892.00
61.28 857.00
61.3452 883.00
61.4104 859.00
61.4756 902.00
61.5408 879.00
61.606 884.00
61.6712 895.00
61.7364 878.00
61.8016 877.00
61.8667 841.00
61.932 942.00
61.9971 907.00
62.0623 900.00
62.1275 893.00
62.1927 905.00
62.2579 933.00
62.3231 871.00
62.3883 787.00
62.4535 849.00
62.5187 887.00
62.5839 878.00
62.6491 858.00
62.7143 922.00
62.7795 882.00
62.8447 895.00
62.9099 946.00
62.9751 922.00
63.0403 879.00
63.1055 896.00
63.1707 876.00
63.2359 835.00
63.3011 863.00
63.3663 881.00
63.4315 901.00
63.4967 863.00
63.5619 935.00
63.6271 857.00
63.6923 886.00
63.7575 860.00
63.8227 859.00
63.8879 875.00
63.9531 864.00
64.0183 856.00
64.0835 817.00
64.1487 902.00
64.2139 858.00
64.2791 909.00
64.3443 911.00
64.4095 935.00
64.4747 914.00
64.5399 909.00
64.6051 969.00
64.6703 866.00
64.7355 868.00
64.8007 933.00
64.8659 982.00
64.9311 980.00
64.9963 1023.00
65.0615 973.00
65.1267 970.00
65.1919 915.00
65.2571 953.00
65.3223 880.00
65.3875 873.00
65.4527 852.00
65.5179 818.00
65.5831 877.00
65.6483 881.00
65.7135 863.00
65.7787 839.00
65.8439 913.00
65.9091 921.00
65.9743 891.00
66.0395 834.00
66.1047 879.00
66.1699 848.00
66.2351 850.00
66.3003 859.00
66.3655 859.00
66.4307 847.00
66.4959 850.00
66.561 859.00
66.6263 886.00
66.6915 904.00
66.7566 840.00
66.8218 850.00
66.887 861.00
66.9522 845.00
67.0174 906.00
67.0826 894.00
67.1478 871.00
67.213 1009.00
67.2782 1335.00
67.3434 1060.00
67.4086 956.00
67.4738 1109.00
67.539 951.00
67.6042 944.00
67.6694 919.00
67.7346 989.00
67.7998 1023.00
67.865 1102.00
67.9302 1233.00
67.9954 1212.00
68.0606 1314.00
68.1258 1218.00
68.191 1236.00
68.2562 1159.00
68.3214 1036.00
68.3866 1010.00
68.4518 974.00
68.517 969.00
68.5822 896.00
68.6474 879.00
68.7126 949.00
68.7778 902.00
68.843 940.00
68.9082 974.00
68.9734 977.00
69.0386 1073.00
69.1038 1247.00
69.169 1534.00
69.2342 1921.00
69.2994 2704.00
69.3646 3237.00
69.4298 3238.00
69.495 2700.00
69.5602 2499.00
69.6254 2138.00
69.6906 1540.00
69.7558 1230.00
69.821 1178.00
69.8862 1116.00
69.9514 1032.00
70.0166 1043.00
70.0818 1045.00
70.147 1088.00
70.2122 1139.00
70.2774 1221.00
70.3426 1126.00
70.4078 1262.00
70.473 1273.00
70.5382 1240.00
70.6034 1068.00
70.6686 1023.00
70.7338 1058.00
70.799 928.00
70.8642 869.00
70.9294 907.00
70.9946 842.00
71.0598 835.00
71.125 804.00
71.1902 851.00
71.2554 854.00
71.3205 768.00
71.3858 850.00
71.451 764.00
71.5162 853.00
71.5813 751.00
71.6465 807.00
71.7117 847.00
71.7769 823.00
71.8421 877.00
71.9073 827.00
71.9725 839.00
72.0377 846.00
72.1029 821.00
72.1681 801.00
72.2333 826.00
72.2985 834.00
72.3637 835.00
72.4289 852.00
72.4941 891.00
72.5593 948.00
72.6245 916.00
72.6897 1041.00
72.7549 1135.00
72.8201 1191.00
72.8853 1242.00
72.9505 1217.00
73.0157 1223.00
73.0809 1203.00
73.1461 1168.00
73.2113 1099.00
73.2765 1113.00
73.3417 1163.00
73.4069 1211.00
73.4721 1283.00
73.5373 1481.00
73.6025 1577.00
73.6677 1593.00
73.7329 1469.00
73.7981 1536.00
73.8633 1424.00
73.9285 1301.00
73.9937 1322.00
74.0589 1282.00
74.1241 1196.00
74.1893 1082.00
74.2545 1106.00
74.3197 1079.00
74.3849 1123.00
74.4501 1107.00
74.5153 1070.00
74.5805 1151.00
74.6457 1142.00
74.7109 1198.00
74.7761 1262.00
74.8413 1236.00
74.9065 1263.00
74.9717 1129.00
75.0369 1199.00
75.1021 1166.00
75.1673 1193.00
75.2325 1110.00
75.2977 1163.00
75.3629 1112.00
75.4281 990.00
75.4933 922.00
75.5585 961.00
75.6237 919.00
75.6889 851.00
75.7541 817.00
75.8193 826.00
75.8845 810.00
75.9497 795.00
76.0149 829.00
76.0801 848.00
76.1452 859.00
76.2104 803.00
76.2756 838.00
76.3409 823.00
76.406 860.00
76.4712 812.00
76.5364 903.00
76.6016 774.00
76.6668 812.00
76.732 798.00
76.7972 856.00
76.8624 804.00
76.9276 777.00
76.9928 809.00
77.058 828.00
77.1232 810.00
77.1884 868.00
77.2536 715.00
77.3188 867.00
77.384 827.00
77.4492 820.00
77.5144 858.00
77.5796 873.00
77.6448 893.00
77.71 942.00
77.7752 977.00
77.8404 1156.00
77.9056 1166.00
77.9708 1154.00
78.036 1143.00
78.1012 1193.00
78.1664 1058.00
78.2316 1118.00
78.2968 1031.00
78.362 1006.00
78.4272 1018.00
78.4924 1064.00
78.5576 1127.00
78.6228 1202.00
78.688 1394.00
78.7532 1752.00
78.8184 1951.00
78.8836 1944.00
78.9488 2052.00
79.014 2235.00
79.0792 2505.00
79.1444 2520.00
79.2096 2281.00
79.2748 1928.00
79.34 1820.00
79.4052 1780.00
79.4704 1595.00
79.5356 1413.00
79.6008 1342.00
79.666 1365.00
79.7312 1223.00
79.7964 1193.00
79.8616 1109.00
79.9268 1075.00
79.992 986.00
80.0572 935.00
80.1224 962.00
80.1876 925.00
80.2528 965.00
80.318 874.00
80.3832 905.00
80.4484 886.00
80.5136 884.00
80.5788 828.00
80.644 810.00
80.7092 830.00
80.7744 814.00
80.8396 918.00
80.9048 779.00
80.9699 874.00
81.0351 809.00
81.1003 845.00
81.1655 885.00
81.2307 830.00
81.2959 781.00
81.3611 783.00
81.4263 808.00
81.4915 802.00
81.5567 780.00
81.6219 847.00
81.6871 779.00
81.7523 771.00
81.8175 770.00
81.8827 796.00
81.9479 806.00
82.0131 847.00
82.0783 792.00
82.1435 789.00
82.2087 827.00
82.2739 868.00
82.3391 906.00
82.4043 930.00
82.4695 1117.00
82.5347 1176.00
82.5999 1151.00
82.6651 1145.00
82.7303 1155.00
82.7955 1137.00
82.8607 1115.00
82.9259 1082.00
82.9911 1016.00
83.0563 969.00
83.1215 919.00
83.1867 909.00
83.2519 886.00
83.3171 895.00
83.3823 933.00
83.4475 937.00
83.5127 953.00
83.5779 983.00
83.6431 1040.00
83.7083 1062.00
83.7735 1072.00
83.8387 1015.00
83.9039 1030.00
83.9691 1045.00
84.0343 1096.00
84.0995 1172.00
84.1647 1225.00
84.2299 1247.00
84.2951 1244.00
84.3603 1236.00
84.4255 1223.00
84.4907 1169.00
84.5559 1096.00
84.6211 1115.00
84.6863 989.00
84.7515 961.00
84.8167 858.00
84.8819 878.00
84.9471 917.00
85.0123 881.00
85.0775 817.00
85.1427 859.00
85.2079 892.00
85.2731 867.00
85.3383 790.00
85.4035 881.00
85.4687 821.00
85.5339 840.00
85.5991 794.00
85.6643 819.00
85.7295 816.00
85.7946 781.00
85.8598 797.00
85.925 776.00
85.9903 755.00
86.0554 749.00
86.1206 781.00
86.1858 831.00
86.251 794.00
86.3162 843.00
86.3814 783.00
86.4466 794.00
86.5118 855.00
86.577 815.00
86.6422 894.00
86.7074 855.00
86.7726 931.00
86.8378 957.00
86.903 991.00
86.9682 1074.00
87.0334 1131.00
87.0986 1057.00
87.1638 1015.00
87.229 1061.00
87.2942 1019.00
87.3594 1003.00
87.4246 973.00
87.4898 898.00
87.555 923.00
87.6202 874.00
87.6854 876.00
87.7506 837.00
87.8158 873.00
87.881 838.00
87.9462 818.00
88.0114 907.00
88.0766 1033.00
88.1418 988.00
88.207 929.00
88.2722 956.00
88.3374 958.00
88.4026 963.00
88.4678 897.00
88.533 891.00
88.5982 941.00
88.6634 901.00
88.7286 947.00
88.7938 918.00
88.859 867.00
88.9242 953.00
88.9894 1003.00
89.0546 1032.00
89.1198 1049.00
89.185 1020.00
89.2502 1106.00
89.3154 1196.00
89.3806 1161.00
89.4458 1126.00
89.511 988.00
89.5762 990.00
89.6414 996.00
89.7066 961.00
89.7718 855.00
89.837 847.00
89.9022 803.00
89.9674 809.00
90.0326 877.00
90.0978 840.00
90.163 866.00
90.2282 838.00
90.2934 814.00
90.3586 774.00
90.4238 840.00
90.489 833.00
90.5542 794.00
90.6193 897.00
90.6845 842.00
90.7497 941.00
90.8149 926.00
90.8801 917.00
90.9453 959.00
91.0105 994.00
91.0757 972.00
91.1409 905.00
91.2061 973.00
91.2713 938.00
91.3365 912.00
91.4017 906.00
91.4669 872.00
91.5321 938.00
91.5973 1002.00
91.6625 951.00
91.7277 944.00
91.7929 909.00
91.8581 858.00
91.9233 925.00
91.9885 917.00
92.0537 910.00
92.1189 884.00
92.1841 897.00
92.2493 888.00
92.3145 875.00
92.3797 826.00
92.4449 901.00
92.5101 932.00
92.5753 981.00
92.6405 1034.00
92.7057 1098.00
92.7709 1140.00
92.8361 1100.00
92.9013 1177.00
92.9665 1223.00
93.0317 1170.00
93.0969 1090.00
93.1621 1050.00
93.2273 1036.00
93.2925 929.00
93.3577 911.00
93.4229 866.00
93.4881 911.00
93.5533 820.00
93.6185 852.00
93.6837 815.00
93.7489 790.00
93.8141 840.00
93.8793 888.00
93.9445 831.00
94.0097 894.00
94.0749 819.00
94.1401 836.00
94.2053 814.00
94.2705 884.00
94.3357 841.00
94.4009 839.00
94.4661 888.00
94.5313 887.00
94.5965 849.00
94.6617 882.00
94.7269 892.00
94.7921 973.00
94.8573 898.00
94.9225 914.00
94.9877 859.00
95.0529 902.00
95.1181 905.00
95.1833 972.00
95.2485 861.00
95.3137 893.00
95.3789 951.00
95.444 975.00
95.5092 1029.00
95.5744 1027.00
95.6396 972.00
95.7048 1038.00
95.77 977.00
95.8352 981.00
95.9004 1001.00
95.9656 1023.00
96.0308 982.00
96.096 960.00
96.1612 969.00
96.2264 1018.00
96.2916 1123.00
96.3568 1119.00
96.422 1251.00
96.4872 1271.00
96.5524 1258.00
96.6176 1169.00
96.6828 1346.00
96.748 1270.00
96.8132 1414.00
96.8784 1393.00
96.9436 1452.00
97.0088 1463.00
97.074 1357.00
97.1392 1376.00
97.2044 1336.00
97.2696 1283.00
97.3348 1242.00
97.4 1198.00
97.4652 1174.00
97.5304 1131.00
97.5956 1135.00
97.6608 1172.00
97.726 1237.00
97.7912 1227.00
97.8564 1360.00
97.9216 1453.00
97.9868 1575.00
98.052 1714.00
98.1172 1916.00
98.1824 2013.00
98.2476 2022.00
98.3128 1759.00
98.378 1687.00
98.4432 1642.00
98.5084 1583.00
98.5736 1558.00
98.6388 1395.00
98.704 1394.00
98.7692 1339.00
98.8344 1332.00
98.8996 1324.00
98.9648 1272.00
99.03 1322.00
99.0952 1259.00
99.1604 1177.00
99.2256 1157.00
99.2908 1126.00
99.356 966.00
99.4212 1025.00
99.4864 967.00
99.5516 857.00
99.6168 821.00
99.682 892.00
99.7472 967.00
99.8124 874.00
99.8776 826.00
99.9428 835.00
100.008 832.00
100.073 872.00
100.095 872.00