File: data/xrd_creation/results/TRI_193.xy
10.0094 2303.00
10.0746 2305.00
10.1398 2272.00
10.205 2327.00
10.2702 2240.00
10.3354 2143.00
10.4006 2293.00
10.4658 2201.00
10.531 2231.00
10.5962 2240.00
10.6614 2095.00
10.7266 2092.00
10.7918 2177.00
10.857 2123.00
10.9222 2154.00
10.9874 2128.00
11.0526 2071.00
11.1178 2127.00
11.183 2026.00
11.2482 2013.00
11.3134 2115.00
11.3786 1904.00
11.4438 2021.00
11.509 1978.00
11.5742 1942.00
11.6394 1884.00
11.7046 1882.00
11.7698 1910.00
11.835 1819.00
11.9002 1889.00
11.9654 1837.00
12.0306 1848.00
12.0958 1855.00
12.161 1836.00
12.2262 1757.00
12.2914 1836.00
12.3566 1722.00
12.4218 1780.00
12.487 1744.00
12.5522 1745.00
12.6174 1673.00
12.6826 1709.00
12.7478 1743.00
12.813 1689.00
12.8782 1621.00
12.9434 1682.00
13.0086 1716.00
13.0738 1686.00
13.139 1638.00
13.2042 1644.00
13.2694 1644.00
13.3346 1583.00
13.3998 1618.00
13.465 1590.00
13.5302 1599.00
13.5954 1567.00
13.6606 1569.00
13.7258 1676.00
13.791 1478.00
13.8562 1611.00
13.9214 1547.00
13.9865 1505.00
14.0517 1547.00
14.1169 1577.00
14.1821 1476.00
14.2473 1503.00
14.3125 1500.00
14.3777 1582.00
14.4429 1518.00
14.5081 1527.00
14.5733 1504.00
14.6385 1484.00
14.7037 1414.00
14.7689 1455.00
14.8341 1487.00
14.8993 1415.00
14.9645 1422.00
15.0297 1482.00
15.0949 1415.00
15.1601 1422.00
15.2253 1433.00
15.2905 1484.00
15.3557 1494.00
15.4209 1500.00
15.4861 1467.00
15.5513 1404.00
15.6165 1441.00
15.6817 1434.00
15.7469 1363.00
15.8121 1409.00
15.8773 1410.00
15.9425 1396.00
16.0077 1346.00
16.0729 1325.00
16.1381 1318.00
16.2033 1376.00
16.2685 1335.00
16.3337 1317.00
16.3989 1395.00
16.4641 1336.00
16.5293 1351.00
16.5945 1306.00
16.6597 1381.00
16.7249 1358.00
16.7901 1410.00
16.8553 1402.00
16.9205 1402.00
16.9857 1469.00
17.0509 1468.00
17.1161 1475.00
17.1813 1449.00
17.2465 1502.00
17.3117 1434.00
17.3769 1371.00
17.4421 1281.00
17.5073 1318.00
17.5725 1332.00
17.6377 1312.00
17.7029 1321.00
17.7681 1347.00
17.8333 1358.00
17.8985 1302.00
17.9637 1264.00
18.0289 1265.00
18.0941 1285.00
18.1593 1169.00
18.2245 1243.00
18.2897 1206.00
18.3549 1284.00
18.4201 1232.00
18.4853 1254.00
18.5505 1198.00
18.6157 1159.00
18.6809 1267.00
18.7461 1304.00
18.8112 1257.00
18.8764 1215.00
18.9416 1198.00
19.0068 1149.00
19.072 1203.00
19.1372 1181.00
19.2024 1169.00
19.2676 1224.00
19.3328 1133.00
19.398 1181.00
19.4632 1190.00
19.5284 1171.00
19.5936 1074.00
19.6588 1133.00
19.724 1121.00
19.7892 1181.00
19.8544 1109.00
19.9196 1207.00
19.9848 1199.00
20.05 1116.00
20.1152 1187.00
20.1804 1162.00
20.2456 1118.00
20.3108 1215.00
20.376 1127.00
20.4412 1222.00
20.5064 1221.00
20.5716 1226.00
20.6368 1210.00
20.702 1182.00
20.7672 1079.00
20.8324 1108.00
20.8976 1086.00
20.9628 1171.00
21.028 1125.00
21.0932 1109.00
21.1584 1056.00
21.2236 1063.00
21.2888 1076.00
21.354 1147.00
21.4192 1105.00
21.4844 1111.00
21.5496 1063.00
21.6148 1098.00
21.68 1083.00
21.7452 1090.00
21.8104 1085.00
21.8756 1071.00
21.9408 1077.00
22.006 991.00
22.0712 1046.00
22.1364 1072.00
22.2016 1027.00
22.2668 1052.00
22.332 1066.00
22.3972 1054.00
22.4624 1067.00
22.5276 1053.00
22.5928 1018.00
22.658 1115.00
22.7232 1016.00
22.7884 1058.00
22.8536 1034.00
22.9188 1033.00
22.984 1019.00
23.0492 1031.00
23.1144 1023.00
23.1796 999.00
23.2448 1020.00
23.31 1004.00
23.3752 994.00
23.4404 1036.00
23.5056 1006.00
23.5708 1010.00
23.6359 981.00
23.7011 997.00
23.7663 1039.00
23.8315 1043.00
23.8967 989.00
23.9619 1012.00
24.0271 964.00
24.0923 995.00
24.1575 1031.00
24.2227 976.00
24.2879 954.00
24.3531 1010.00
24.4183 989.00
24.4835 1004.00
24.5487 1007.00
24.6139 999.00
24.6791 1011.00
24.7443 986.00
24.8095 988.00
24.8747 988.00
24.9399 975.00
25.0051 903.00
25.0703 972.00
25.1355 928.00
25.2007 972.00
25.2659 955.00
25.3311 1030.00
25.3963 979.00
25.4615 961.00
25.5267 939.00
25.5919 930.00
25.6571 946.00
25.7223 1056.00
25.7875 933.00
25.8527 884.00
25.9179 885.00
25.9831 872.00
26.0483 959.00
26.1135 994.00
26.1787 938.00
26.2439 899.00
26.3091 948.00
26.3743 930.00
26.4395 929.00
26.5047 924.00
26.5699 922.00
26.6351 986.00
26.7003 936.00
26.7655 946.00
26.8307 954.00
26.8959 969.00
26.9611 959.00
27.0263 1020.00
27.0915 986.00
27.1567 1022.00
27.2219 1131.00
27.2871 1079.00
27.3523 1225.00
27.4175 1477.00
27.4827 1668.00
27.5479 2116.00
27.6131 2621.00
27.6783 3116.00
27.7435 3401.00
27.8087 3220.00
27.8739 2451.00
27.9391 1744.00
28.0043 1438.00
28.0695 1358.00
28.1347 1396.00
28.1999 1253.00
28.2651 1152.00
28.3303 1076.00
28.3955 1204.00
28.4606 1255.00
28.5258 1233.00
28.591 1244.00
28.6562 1155.00
28.7214 1039.00
28.7866 967.00
28.8518 953.00
28.917 996.00
28.9822 1011.00
29.0474 1042.00
29.1126 1092.00
29.1778 1165.00
29.243 1321.00
29.3082 1477.00
29.3734 1660.00
29.4386 1709.00
29.5038 1632.00
29.569 1356.00
29.6342 1106.00
29.6994 1061.00
29.7646 988.00
29.8298 910.00
29.895 897.00
29.9602 880.00
30.0254 887.00
30.0906 922.00
30.1558 925.00
30.221 951.00
30.2862 853.00
30.3514 862.00
30.4166 837.00
30.4818 863.00
30.547 863.00
30.6122 831.00
30.6774 902.00
30.7426 847.00
30.8078 876.00
30.873 846.00
30.9382 836.00
31.0034 909.00
31.0686 887.00
31.1338 851.00
31.199 882.00
31.2642 807.00
31.3294 813.00
31.3946 855.00
31.4598 853.00
31.525 829.00
31.5902 854.00
31.6554 772.00
31.7206 793.00
31.7858 747.00
31.851 827.00
31.9162 806.00
31.9814 798.00
32.0466 776.00
32.1118 768.00
32.177 813.00
32.2422 846.00
32.3074 743.00
32.3726 844.00
32.4378 846.00
32.503 776.00
32.5682 844.00
32.6334 815.00
32.6986 829.00
32.7638 819.00
32.829 783.00
32.8942 813.00
32.9594 823.00
33.0246 835.00
33.0898 829.00
33.1549 808.00
33.2201 746.00
33.2853 790.00
33.3505 812.00
33.4157 756.00
33.4809 790.00
33.5461 852.00
33.6113 806.00
33.6765 839.00
33.7417 911.00
33.8069 916.00
33.8721 1000.00
33.9373 1034.00
34.0025 1025.00
34.0677 984.00
34.1329 906.00
34.1981 827.00
34.2633 937.00
34.3285 1053.00
34.3937 1047.00
34.4589 1209.00
34.5241 1212.00
34.5893 1262.00
34.6545 1123.00
34.7197 932.00
34.7849 788.00
34.8501 793.00
34.9153 761.00
34.9805 805.00
35.0457 805.00
35.1109 844.00
35.1761 840.00
35.2413 783.00
35.3065 851.00
35.3717 848.00
35.4369 872.00
35.5021 817.00
35.5673 856.00
35.6325 764.00
35.6977 797.00
35.7629 845.00
35.8281 804.00
35.8933 793.00
35.9585 864.00
36.0237 827.00
36.0889 774.00
36.1541 751.00
36.2193 790.00
36.2845 749.00
36.3497 743.00
36.4149 806.00
36.4801 731.00
36.5453 757.00
36.6105 816.00
36.6757 819.00
36.7409 865.00
36.8061 900.00
36.8713 963.00
36.9365 956.00
37.0017 961.00
37.0669 899.00
37.1321 970.00
37.1973 1038.00
37.2625 1086.00
37.3277 1006.00
37.3929 985.00
37.4581 912.00
37.5233 744.00
37.5885 793.00
37.6537 748.00
37.7189 766.00
37.7841 689.00
37.8493 728.00
37.9145 776.00
37.9796 770.00
38.0448 831.00
38.11 799.00
38.1752 875.00
38.2404 915.00
38.3056 786.00
38.3708 711.00
38.436 761.00
38.5012 746.00
38.5664 752.00
38.6316 779.00
38.6968 721.00
38.762 706.00
38.8272 756.00
38.8924 701.00
38.9576 726.00
39.0228 752.00
39.088 752.00
39.1532 738.00
39.2184 685.00
39.2836 650.00
39.3488 719.00
39.414 689.00
39.4792 707.00
39.5444 710.00
39.6096 685.00
39.6748 781.00
39.74 732.00
39.8052 757.00
39.8704 736.00
39.9356 722.00
40.0008 713.00
40.066 755.00
40.1312 701.00
40.1964 761.00
40.2616 782.00
40.3268 809.00
40.392 841.00
40.4572 914.00
40.5224 969.00
40.5876 895.00
40.6528 822.00
40.718 752.00
40.7832 728.00
40.8484 786.00
40.9136 764.00
40.9788 763.00
41.044 779.00
41.1092 793.00
41.1744 879.00
41.2396 803.00
41.3048 787.00
41.37 773.00
41.4352 780.00
41.5004 738.00
41.5656 921.00
41.6308 859.00
41.696 865.00
41.7612 879.00
41.8264 805.00
41.8916 840.00
41.9568 865.00
42.022 755.00
42.0872 854.00
42.1524 771.00
42.2176 854.00
42.2828 802.00
42.348 816.00
42.4132 872.00
42.4784 845.00
42.5436 906.00
42.6088 875.00
42.6739 912.00
42.7392 1004.00
42.8043 1040.00
42.8695 1059.00
42.9347 1061.00
42.9999 1033.00
43.0651 927.00
43.1303 808.00
43.1955 779.00
43.2607 782.00
43.3259 785.00
43.3911 764.00
43.4563 731.00
43.5215 701.00
43.5867 672.00
43.6519 756.00
43.7171 654.00
43.7823 731.00
43.8475 697.00
43.9127 722.00
43.9779 712.00
44.0431 703.00
44.1083 670.00
44.1735 770.00
44.2387 755.00
44.3039 744.00
44.3691 846.00
44.4343 769.00
44.4995 746.00
44.5647 738.00
44.6299 705.00
44.6951 774.00
44.7603 701.00
44.8255 709.00
44.8907 742.00
44.9559 693.00
45.0211 713.00
45.0863 718.00
45.1515 680.00
45.2167 687.00
45.2819 716.00
45.3471 663.00
45.4123 733.00
45.4775 757.00
45.5427 738.00
45.6079 756.00
45.6731 839.00
45.7383 831.00
45.8035 884.00
45.8687 884.00
45.9339 855.00
45.9991 833.00
46.0643 795.00
46.1295 849.00
46.1947 855.00
46.2599 973.00
46.3251 1024.00
46.3903 908.00
46.4555 833.00
46.5207 858.00
46.5859 727.00
46.6511 762.00
46.7163 688.00
46.7815 712.00
46.8467 723.00
46.9119 677.00
46.9771 725.00
47.0423 660.00
47.1075 631.00
47.1727 660.00
47.2379 714.00
47.3031 680.00
47.3683 711.00
47.4335 695.00
47.4986 694.00
47.5639 660.00
47.629 681.00
47.6942 668.00
47.7594 696.00
47.8246 688.00
47.8898 699.00
47.955 746.00
48.0202 715.00
48.0854 724.00
48.1506 733.00
48.2158 682.00
48.281 637.00
48.3462 695.00
48.4114 698.00
48.4766 736.00
48.5418 641.00
48.607 676.00
48.6722 710.00
48.7374 700.00
48.8026 682.00
48.8678 709.00
48.933 659.00
48.9982 671.00
49.0634 712.00
49.1286 671.00
49.1938 725.00
49.259 695.00
49.3242 648.00
49.3894 668.00
49.4546 681.00
49.5198 631.00
49.585 662.00
49.6502 690.00
49.7154 665.00
49.7806 646.00
49.8458 703.00
49.911 693.00
49.9762 749.00
50.0414 741.00
50.1066 733.00
50.1718 706.00
50.237 632.00
50.3022 688.00
50.3674 729.00
50.4326 721.00
50.4978 693.00
50.563 729.00
50.6282 712.00
50.6934 729.00
50.7586 699.00
50.8238 692.00
50.889 702.00
50.9542 688.00
51.0194 741.00
51.0846 723.00
51.1498 755.00
51.215 738.00
51.2802 754.00
51.3454 733.00
51.4106 749.00
51.4758 748.00
51.541 772.00
51.6062 826.00
51.6714 822.00
51.7366 770.00
51.8018 772.00
51.867 731.00
51.9322 718.00
51.9974 749.00
52.0626 712.00
52.1278 712.00
52.193 748.00
52.2582 811.00
52.3233 834.00
52.3886 856.00
52.4537 807.00
52.5189 794.00
52.5841 842.00
52.6493 840.00
52.7145 867.00
52.7797 871.00
52.8449 802.00
52.9101 717.00
52.9753 804.00
53.0405 771.00
53.1057 754.00
53.1709 725.00
53.2361 773.00
53.3013 722.00
53.3665 699.00
53.4317 761.00
53.4969 733.00
53.5621 745.00
53.6273 858.00
53.6925 879.00
53.7577 1049.00
53.8229 1244.00
53.8881 1296.00
53.9533 1100.00
54.0185 977.00
54.0837 914.00
54.1489 806.00
54.2141 797.00
54.2793 823.00
54.3445 722.00
54.4097 772.00
54.4749 750.00
54.5401 777.00
54.6053 822.00
54.6705 857.00
54.7357 782.00
54.8009 841.00
54.8661 792.00
54.9313 793.00
54.9965 700.00
55.0617 775.00
55.1269 752.00
55.1921 806.00
55.2573 795.00
55.3225 832.00
55.3877 830.00
55.4529 822.00
55.5181 813.00
55.5833 926.00
55.6485 982.00
55.7137 906.00
55.7789 921.00
55.8441 929.00
55.9093 837.00
55.9745 774.00
56.0397 781.00
56.1049 855.00
56.1701 809.00
56.2353 809.00
56.3005 738.00
56.3657 778.00
56.4309 829.00
56.4961 801.00
56.5613 930.00
56.6265 938.00
56.6917 895.00
56.7569 925.00
56.8221 929.00
56.8873 856.00
56.9525 751.00
57.0177 761.00
57.0829 759.00
57.148 749.00
57.2132 820.00
57.2784 794.00
57.3436 814.00
57.4088 836.00
57.474 850.00
57.5392 811.00
57.6044 764.00
57.6696 781.00
57.7348 848.00
57.8 796.00
57.8652 816.00
57.9304 791.00
57.9956 737.00
58.0608 748.00
58.126 753.00
58.1912 721.00
58.2564 731.00
58.3216 726.00
58.3868 744.00
58.452 741.00
58.5172 743.00
58.5824 776.00
58.6476 720.00
58.7128 717.00
58.778 776.00
58.8432 774.00
58.9084 756.00
58.9736 744.00
59.0388 782.00
59.104 807.00
59.1692 870.00
59.2344 966.00
59.2996 1068.00
59.3648 1092.00
59.43 1144.00
59.4952 1069.00
59.5604 1042.00
59.6256 975.00
59.6908 926.00
59.756 825.00
59.8212 890.00
59.8864 867.00
59.9516 916.00
60.0168 864.00
60.082 839.00
60.1472 759.00
60.2124 751.00
60.2776 715.00
60.3428 720.00
60.408 760.00
60.4732 752.00
60.5384 756.00
60.6036 808.00
60.6688 784.00
60.734 790.00
60.7992 768.00
60.8644 780.00
60.9296 746.00
60.9948 711.00
61.06 705.00
61.1252 795.00
61.1904 713.00
61.2556 736.00
61.3208 760.00
61.386 799.00
61.4512 785.00
61.5164 768.00
61.5816 795.00
61.6468 852.00
61.712 846.00
61.7772 897.00
61.8424 820.00
61.9076 798.00
61.9727 772.00
62.0379 737.00
62.1031 793.00
62.1683 745.00
62.2335 762.00
62.2987 705.00
62.3639 747.00
62.4291 747.00
62.4943 698.00
62.5595 693.00
62.6247 703.00
62.6899 683.00
62.7551 681.00
62.8203 725.00
62.8855 717.00
62.9507 710.00
63.0159 715.00
63.0811 708.00
63.1463 755.00
63.2115 722.00
63.2767 710.00
63.3419 717.00
63.4071 748.00
63.4723 737.00
63.5375 741.00
63.6027 718.00
63.6679 760.00
63.7331 774.00
63.7983 798.00
63.8635 775.00
63.9287 802.00
63.9939 809.00
64.0591 785.00
64.1243 825.00
64.1895 882.00
64.2547 894.00
64.3199 803.00
64.3851 775.00
64.4503 814.00
64.5155 833.00
64.5807 770.00
64.6459 807.00
64.7111 835.00
64.7763 872.00
64.8415 978.00
64.9067 1025.00
64.9719 1036.00
65.0371 976.00
65.1023 1019.00
65.1675 912.00
65.2327 878.00
65.2979 839.00
65.3631 850.00
65.4283 781.00
65.4935 818.00
65.5587 808.00
65.6239 810.00
65.6891 858.00
65.7543 864.00
65.8195 830.00
65.8847 788.00
65.9499 760.00
66.0151 727.00
66.0803 733.00
66.1455 758.00
66.2107 743.00
66.2759 732.00
66.3411 680.00
66.4063 779.00
66.4715 676.00
66.5367 697.00
66.6019 728.00
66.6671 734.00
66.7322 732.00
66.7974 738.00
66.8626 756.00
66.9278 697.00
66.993 687.00
67.0582 734.00
67.1234 710.00
67.1886 709.00
67.2538 716.00
67.319 690.00
67.3842 726.00
67.4494 703.00
67.5146 671.00
67.5798 704.00
67.645 746.00
67.7102 719.00
67.7754 693.00
67.8406 721.00
67.9058 717.00
67.971 698.00
68.0362 693.00
68.1014 728.00
68.1666 734.00
68.2318 754.00
68.297 765.00
68.3622 773.00
68.4274 832.00
68.4926 804.00
68.5578 808.00
68.623 819.00
68.6882 801.00
68.7534 838.00
68.8186 825.00
68.8838 780.00
68.949 845.00
69.0142 880.00
69.0794 852.00
69.1446 832.00
69.2098 860.00
69.275 814.00
69.3402 772.00
69.4054 729.00
69.4706 740.00
69.5358 751.00
69.601 731.00
69.6662 709.00
69.7314 745.00
69.7966 748.00
69.8618 731.00
69.927 753.00
69.9922 752.00
70.0574 716.00
70.1226 759.00
70.1878 687.00
70.253 702.00
70.3182 754.00
70.3834 720.00
70.4486 736.00
70.5138 777.00
70.579 781.00
70.6442 801.00
70.7094 801.00
70.7746 779.00
70.8398 798.00
70.905 795.00
70.9702 722.00
71.0354 766.00
71.1006 779.00
71.1658 783.00
71.231 749.00
71.2962 755.00
71.3614 776.00
71.4266 790.00
71.4918 730.00
71.5569 749.00
71.6221 789.00
71.6873 739.00
71.7525 743.00
71.8177 761.00
71.8829 789.00
71.9481 811.00
72.0133 837.00
72.0785 848.00
72.1437 859.00
72.2089 840.00
72.2741 758.00
72.3393 814.00
72.4045 778.00
72.4697 762.00
72.5349 776.00
72.6001 758.00
72.6653 784.00
72.7305 714.00
72.7957 726.00
72.8609 716.00
72.9261 757.00
72.9913 695.00
73.0565 724.00
73.1217 770.00
73.1869 773.00
73.2521 716.00
73.3173 754.00
73.3825 699.00
73.4477 714.00
73.5129 741.00
73.5781 743.00
73.6433 774.00
73.7085 762.00
73.7737 760.00
73.8389 686.00
73.9041 735.00
73.9693 693.00
74.0345 719.00
74.0997 740.00
74.1649 730.00
74.2301 762.00
74.2953 727.00
74.3605 786.00
74.4257 744.00
74.4909 716.00
74.5561 793.00
74.6213 748.00
74.6865 720.00
74.7517 734.00
74.8169 723.00
74.8821 797.00
74.9473 768.00
75.0125 792.00
75.0777 727.00
75.1429 764.00
75.2081 767.00
75.2733 760.00
75.3385 754.00
75.4037 741.00
75.4689 766.00
75.5341 739.00
75.5993 741.00
75.6645 756.00
75.7297 752.00
75.7949 783.00
75.8601 756.00
75.9253 711.00
75.9905 757.00
76.0557 743.00
76.1209 736.00
76.186 801.00
76.2513 747.00
76.3165 712.00
76.3816 789.00
76.4468 743.00
76.512 692.00
76.5772 806.00
76.6424 707.00
76.7076 742.00
76.7728 732.00
76.838 767.00
76.9032 714.00
76.9684 714.00
77.0336 738.00
77.0988 729.00
77.164 746.00
77.2292 706.00
77.2944 688.00
77.3596 710.00
77.4248 712.00
77.49 725.00
77.5552 768.00
77.6204 727.00
77.6856 792.00
77.7508 786.00
77.816 746.00
77.8812 791.00
77.9464 762.00
78.0116 791.00
78.0768 758.00
78.142 759.00
78.2072 783.00
78.2724 724.00
78.3376 765.00
78.4028 778.00
78.468 682.00
78.5332 751.00
78.5984 742.00
78.6636 725.00
78.7288 758.00
78.794 729.00
78.8592 711.00
78.9244 797.00
78.9896 730.00
79.0548 773.00
79.12 728.00
79.1852 753.00
79.2504 720.00
79.3156 715.00
79.3808 707.00
79.446 746.00
79.5112 712.00
79.5764 757.00
79.6416 801.00
79.7068 702.00
79.772 730.00
79.8372 808.00
79.9024 701.00
79.9676 772.00
80.0328 772.00
80.098 798.00
80.1632 732.00
80.2284 768.00
80.2936 722.00
80.3588 741.00
80.424 719.00
80.4892 763.00
80.5544 729.00
80.6196 778.00
80.6848 781.00
80.75 750.00
80.8152 711.00
80.8804 694.00
80.9456 723.00
81.0108 767.00
81.076 688.00
81.1412 760.00
81.2063 704.00
81.2715 753.00
81.3367 721.00
81.4019 741.00
81.4671 761.00
81.5323 726.00
81.5975 773.00
81.6627 764.00
81.7279 791.00
81.7931 761.00
81.8583 762.00
81.9235 718.00
81.9887 753.00
82.0539 778.00
82.1191 724.00
82.1843 735.00
82.2495 744.00
82.3147 793.00
82.3799 772.00
82.4451 732.00
82.5103 730.00
82.5755 754.00
82.6407 758.00
82.7059 722.00
82.7711 725.00
82.8363 747.00
82.9015 758.00
82.9667 761.00
83.0319 799.00
83.0971 760.00
83.1623 756.00
83.2275 755.00
83.2927 722.00
83.3579 749.00
83.4231 721.00
83.4883 747.00
83.5535 761.00
83.6187 725.00
83.6839 802.00
83.7491 720.00
83.8143 759.00
83.8795 755.00
83.9447 762.00
84.0099 751.00
84.0751 779.00
84.1403 780.00
84.2055 713.00
84.2707 716.00
84.3359 774.00
84.4011 781.00
84.4663 763.00
84.5315 725.00
84.5967 738.00
84.6619 784.00
84.7271 750.00
84.7923 794.00
84.8575 765.00
84.9227 767.00
84.9879 766.00
85.0531 708.00
85.1183 761.00
85.1835 785.00
85.2487 761.00
85.3139 771.00
85.3791 824.00
85.4443 792.00
85.5095 728.00
85.5747 756.00
85.6399 773.00
85.7051 745.00
85.7703 760.00
85.8354 782.00
85.9006 726.00
85.9659 864.00
86.031 807.00
86.0962 850.00
86.1614 754.00
86.2266 802.00
86.2918 831.00
86.357 787.00
86.4222 814.00
86.4874 779.00
86.5526 787.00
86.6178 799.00
86.683 785.00
86.7482 821.00
86.8134 790.00
86.8786 774.00
86.9438 805.00
87.009 820.00
87.0742 804.00
87.1394 819.00
87.2046 816.00
87.2698 862.00
87.335 875.00
87.4002 849.00
87.4654 765.00
87.5306 801.00
87.5958 744.00
87.661 850.00
87.7262 827.00
87.7914 757.00
87.8566 800.00
87.9218 759.00
87.987 741.00
88.0522 773.00
88.1174 783.00
88.1826 722.00
88.2478 707.00
88.313 782.00
88.3782 751.00
88.4434 789.00
88.5086 808.00
88.5738 763.00
88.639 756.00
88.7042 813.00
88.7694 821.00
88.8346 805.00
88.8998 782.00
88.965 750.00
89.0302 780.00
89.0954 812.00
89.1606 765.00
89.2258 765.00
89.291 757.00
89.3562 801.00
89.4214 722.00
89.4866 747.00
89.5518 770.00
89.617 803.00
89.6822 825.00
89.7474 764.00
89.8126 823.00
89.8778 769.00
89.943 757.00
90.0082 821.00
90.0734 824.00
90.1386 813.00
90.2038 778.00
90.269 726.00
90.3342 795.00
90.3994 835.00
90.4646 821.00
90.5298 853.00
90.595 811.00
90.6601 876.00
90.7253 839.00
90.7905 835.00
90.8557 819.00
90.9209 849.00
90.9861 806.00
91.0513 795.00
91.1165 841.00
91.1817 797.00
91.2469 769.00
91.3121 848.00
91.3773 809.00
91.4425 812.00
91.5077 836.00
91.5729 750.00
91.6381 768.00
91.7033 820.00
91.7685 827.00
91.8337 835.00
91.8989 880.00
91.9641 825.00
92.0293 841.00
92.0945 853.00
92.1597 837.00
92.2249 854.00
92.2901 916.00
92.3553 808.00
92.4205 830.00
92.4857 811.00
92.5509 821.00
92.6161 774.00
92.6813 901.00
92.7465 865.00
92.8117 830.00
92.8769 870.00
92.9421 877.00
93.0073 864.00
93.0725 821.00
93.1377 864.00
93.2029 920.00
93.2681 829.00
93.3333 853.00
93.3985 829.00
93.4637 851.00
93.5289 801.00
93.5941 775.00
93.6593 818.00
93.7245 813.00
93.7897 817.00
93.8549 875.00
93.9201 798.00
93.9853 799.00
94.0505 773.00
94.1157 806.00
94.1809 823.00
94.2461 774.00
94.3113 822.00
94.3765 811.00
94.4417 816.00
94.5069 782.00
94.5721 767.00
94.6373 794.00
94.7025 764.00
94.7677 801.00
94.8329 740.00
94.8981 743.00
94.9633 800.00
95.0285 814.00
95.0937 746.00
95.1589 777.00
95.2241 808.00
95.2893 824.00
95.3545 779.00
95.4197 749.00
95.4848 813.00
95.55 814.00
95.6153 807.00
95.6804 791.00
95.7456 808.00
95.8108 807.00
95.876 775.00
95.9412 777.00
96.0064 751.00
96.0716 854.00
96.1368 817.00
96.202 820.00
96.2672 791.00
96.3324 783.00
96.3976 825.00
96.4628 840.00
96.528 772.00
96.5932 824.00
96.6584 839.00
96.7236 844.00
96.7888 873.00
96.854 804.00
96.9192 842.00
96.9844 914.00
97.0496 838.00
97.1148 815.00
97.18 870.00
97.2452 784.00
97.3104 801.00
97.3756 837.00
97.4408 777.00
97.506 845.00
97.5712 823.00
97.6364 829.00
97.7016 826.00
97.7668 809.00
97.832 786.00
97.8972 825.00
97.9624 787.00
98.0276 828.00
98.0928 803.00
98.158 782.00
98.2232 779.00
98.2884 814.00
98.3536 849.00
98.4188 796.00
98.484 783.00
98.5492 815.00
98.6144 760.00
98.6796 784.00
98.7448 851.00
98.81 752.00
98.8752 814.00
98.9404 847.00
99.0056 794.00
99.0708 784.00
99.136 803.00
99.2012 824.00
99.2664 880.00
99.3316 849.00
99.3968 878.00
99.462 801.00
99.5272 803.00
99.5924 866.00
99.6576 883.00
99.7228 825.00
99.788 837.00
99.8532 797.00
99.9184 799.00
99.9836 802.00
99.9944 821.00